"trial_type","trial_index","time_elapsed","internal_node_id","userID","sessionType","success","rt","responses","stage","stimulus","key_press","sequence","recall","sequence_last_digits","digit","correct"
"pavlovia","0","2","0.0-0.0","J05POSTTR","POST","","","","","","","","","","",""
"fullscreen","1","3309","0.0-1.0","J05POSTTR","POST","true","","","","","","","","","",""
"survey-html-form","2","13162","0.0-2.0","J05POSTTR","POST","","9186.599990844727","{""userID"":""J05POSTTR"",""type"":""POST""}","userID","","","","","","",""
"html-keyboard-response","3","22874","0.0-3.0","J05POSTTR","POST","","9048.5","","","<p>Welcome to this task.</p>			<p>You will see a set of numbers, presented one at a time.<br/>			You need to pay attention to the numbers in the list and their order.<br/>			The list will end abruptly at any time. You will be told to enter the LAST X number of digits.</p>			<p>[Press SPACE to practice]</p>","32","","","","",""
"html-keyboard-response","4","23689","0.0-4.0","J05POSTTR","POST","","null","","fixation cross","<div class='stimulus'>+</div>","null","","","","",""
"html-keyboard-response","5","25479","0.0-5.0","J05POSTTR","POST","","null","","practice display digit","<div class=""stimulus"">9</div>","null","9,8,3","","","",""
"html-keyboard-response","6","27268","0.0-6.0","J05POSTTR","POST","","null","","practice display digit","<div class=""stimulus"">8</div>","null","9,8,3","","","",""
"html-keyboard-response","7","29057","0.0-7.0","J05POSTTR","POST","","null","","practice display digit","<div class=""stimulus"">3</div>","null","9,8,3","","","",""
"survey-html-form-autofocus","8","33144","0.0-8.0","J05POSTTR","POST","","3418.699996948242","{""recall"":""83""}","practice recall","","","983","","83","",""
"html-keyboard-response","9","34702","0.0-9.0","J05POSTTR","POST","","894.4000091552734","","","<span class='correct'>Perfect!</span><br/>Press SPACE to continue.","32","","","","",""
"html-keyboard-response","10","35516","0.0-10.0","J05POSTTR","POST","","null","","fixation cross","<div class='stimulus'>+</div>","null","","","","",""
"html-keyboard-response","11","37305","0.0-11.0","J05POSTTR","POST","","null","","practice display digit","<div class=""stimulus"">4</div>","null","4,8,2,1,9","","","",""
"html-keyboard-response","12","39095","0.0-12.0","J05POSTTR","POST","","null","","practice display digit","<div class=""stimulus"">8</div>","null","4,8,2,1,9","","","",""
"html-keyboard-response","13","40884","0.0-13.0","J05POSTTR","POST","","null","","practice display digit","<div class=""stimulus"">2</div>","null","4,8,2,1,9","","","",""
"html-keyboard-response","14","42673","0.0-14.0","J05POSTTR","POST","","null","","practice display digit","<div class=""stimulus"">1</div>","null","4,8,2,1,9","","","",""
"html-keyboard-response","15","44463","0.0-15.0","J05POSTTR","POST","","null","","practice display digit","<div class=""stimulus"">9</div>","null","4,8,2,1,9","","","",""
"survey-html-form-autofocus","16","50426","0.0-16.0","J05POSTTR","POST","","5298","{""recall"":""219""}","practice recall","","","48219","","219","",""
"html-keyboard-response","17","51916","0.0-17.0","J05POSTTR","POST","","827.5","","","<span class='correct'>Perfect!</span><br/>Press SPACE to continue.","32","","","","",""
"html-keyboard-response","18","52729","0.0-18.0","J05POSTTR","POST","","null","","fixation cross","<div class='stimulus'>+</div>","null","","","","",""
"html-keyboard-response","19","54518","0.0-19.0","J05POSTTR","POST","","null","","practice display digit","<div class=""stimulus"">5</div>","null","5,7,1,9,4,2,3,6","","","",""
"html-keyboard-response","20","56308","0.0-20.0","J05POSTTR","POST","","null","","practice display digit","<div class=""stimulus"">7</div>","null","5,7,1,9,4,2,3,6","","","",""
"html-keyboard-response","21","58097","0.0-21.0","J05POSTTR","POST","","null","","practice display digit","<div class=""stimulus"">1</div>","null","5,7,1,9,4,2,3,6","","","",""
"html-keyboard-response","22","59886","0.0-22.0","J05POSTTR","POST","","null","","practice display digit","<div class=""stimulus"">9</div>","null","5,7,1,9,4,2,3,6","","","",""
"html-keyboard-response","23","61675","0.0-23.0","J05POSTTR","POST","","null","","practice display digit","<div class=""stimulus"">4</div>","null","5,7,1,9,4,2,3,6","","","",""
"html-keyboard-response","24","63463","0.0-24.0","J05POSTTR","POST","","null","","practice display digit","<div class=""stimulus"">2</div>","null","5,7,1,9,4,2,3,6","","","",""
"html-keyboard-response","25","65252","0.0-25.0","J05POSTTR","POST","","null","","practice display digit","<div class=""stimulus"">3</div>","null","5,7,1,9,4,2,3,6","","","",""
"html-keyboard-response","26","67041","0.0-26.0","J05POSTTR","POST","","null","","practice display digit","<div class=""stimulus"">6</div>","null","5,7,1,9,4,2,3,6","","","",""
"survey-html-form-autofocus","27","79859","0.0-27.0","J05POSTTR","POST","","12154.199996948242","{""recall"":""4326""}","practice recall","","","57194236","","4236","",""
"html-keyboard-response","28","91234","0.0-28.0","J05POSTTR","POST","","10712","","","<p>The sequence was 57194236					and you input 4326.<br/>					<span class='incorrect'>You should have written 4236.</span></p>						<p>Press SPACE to continue</p>","32","","","","",""
"html-keyboard-response","29","93952","0.0-29.0","J05POSTTR","POST","","2706.300003051758","","","<p>That was the practice section.<br/>			<p>Now goes the official part of the task.<br/>			You won't be given any feedback on your performance.</p>			<p>R U ready?</p>			<p>[Press Y to begin]</p>","89","","","","",""
"html-keyboard-response","30","95417","0.0-30.0","J05POSTTR","POST","","null","","fixation cross","<div class='stimulus'>+</div>","null","","","","",""
"html-keyboard-response","31","97205","0.0-31.0","J05POSTTR","POST","","null","","display digit","<div class=""stimulus"">7</div>","null","7,5,6,7,8","","","7",""
"html-keyboard-response","32","98995","0.0-32.0","J05POSTTR","POST","","null","","display digit","<div class=""stimulus"">5</div>","null","7,5,6,7,8","","","5",""
"html-keyboard-response","33","100783","0.0-33.0","J05POSTTR","POST","","null","","display digit","<div class=""stimulus"">6</div>","null","7,5,6,7,8","","","6",""
"html-keyboard-response","34","102571","0.0-34.0","J05POSTTR","POST","","null","","display digit","<div class=""stimulus"">7</div>","null","7,5,6,7,8","","","7",""
"html-keyboard-response","35","104361","0.0-35.0","J05POSTTR","POST","","null","","display digit","<div class=""stimulus"">8</div>","null","7,5,6,7,8","","","8",""
"survey-html-form-autofocus","36","108058","0.0-36.0","J05POSTTR","POST","","3032.300003051758","{""recall"":""8""}","recall","","","75678","8","8","","true"
"html-keyboard-response","37","109522","0.0-37.0","J05POSTTR","POST","","null","","fixation cross","<div class='stimulus'>+</div>","null","","","","",""
"html-keyboard-response","38","111312","0.0-38.0","J05POSTTR","POST","","null","","display digit","<div class=""stimulus"">9</div>","null","9,3,4,5,6,1,8,5","","","9",""
"html-keyboard-response","39","113100","0.0-39.0","J05POSTTR","POST","","null","","display digit","<div class=""stimulus"">3</div>","null","9,3,4,5,6,1,8,5","","","3",""
"html-keyboard-response","40","114888","0.0-40.0","J05POSTTR","POST","","null","","display digit","<div class=""stimulus"">4</div>","null","9,3,4,5,6,1,8,5","","","4",""
"html-keyboard-response","41","116678","0.0-41.0","J05POSTTR","POST","","null","","display digit","<div class=""stimulus"">5</div>","null","9,3,4,5,6,1,8,5","","","5",""
"html-keyboard-response","42","118466","0.0-42.0","J05POSTTR","POST","","null","","display digit","<div class=""stimulus"">6</div>","null","9,3,4,5,6,1,8,5","","","6",""
"html-keyboard-response","43","120255","0.0-43.0","J05POSTTR","POST","","null","","display digit","<div class=""stimulus"">1</div>","null","9,3,4,5,6,1,8,5","","","1",""
"html-keyboard-response","44","122044","0.0-44.0","J05POSTTR","POST","","null","","display digit","<div class=""stimulus"">8</div>","null","9,3,4,5,6,1,8,5","","","8",""
"html-keyboard-response","45","123833","0.0-45.0","J05POSTTR","POST","","null","","display digit","<div class=""stimulus"">5</div>","null","9,3,4,5,6,1,8,5","","","5",""
"survey-html-form-autofocus","46","126909","0.0-46.0","J05POSTTR","POST","","2412.1000061035156","{""recall"":""5""}","recall","","","93456185","5","5","","true"
"html-keyboard-response","47","128375","0.0-47.0-0.0","J05POSTTR","POST","","null","","fixation cross","<div class='stimulus'>+</div>","null","","","","",""
"html-keyboard-response","48","130163","0.0-47.0-1.0","J05POSTTR","POST","","null","","display digit","<div class=""stimulus"">1</div>","null","1,5,7,6,3,7,9","","","1",""
"html-keyboard-response","49","131952","0.0-47.0-2.0","J05POSTTR","POST","","null","","display digit","<div class=""stimulus"">5</div>","null","1,5,7,6,3,7,9","","","5",""
"html-keyboard-response","50","133742","0.0-47.0-3.0","J05POSTTR","POST","","null","","display digit","<div class=""stimulus"">7</div>","null","1,5,7,6,3,7,9","","","7",""
"html-keyboard-response","51","135530","0.0-47.0-4.0","J05POSTTR","POST","","null","","display digit","<div class=""stimulus"">6</div>","null","1,5,7,6,3,7,9","","","6",""
"html-keyboard-response","52","137319","0.0-47.0-5.0","J05POSTTR","POST","","null","","display digit","<div class=""stimulus"">3</div>","null","1,5,7,6,3,7,9","","","3",""
"html-keyboard-response","53","139109","0.0-47.0-6.0","J05POSTTR","POST","","null","","display digit","<div class=""stimulus"">7</div>","null","1,5,7,6,3,7,9","","","7",""
"html-keyboard-response","54","140898","0.0-47.0-7.0","J05POSTTR","POST","","null","","display digit","<div class=""stimulus"">9</div>","null","1,5,7,6,3,7,9","","","9",""
"survey-html-form-autofocus","55","144375","0.0-47.0-8.0","J05POSTTR","POST","","2812.199996948242","{""recall"":""79""}","recall","","","1576379","79","79","","true"
"html-keyboard-response","56","145839","0.0-47.0-9.0","J05POSTTR","POST","","null","","fixation cross","<div class='stimulus'>+</div>","null","","","","",""
"html-keyboard-response","57","147629","0.0-47.0-10.0","J05POSTTR","POST","","null","","display digit","<div class=""stimulus"">0</div>","null","0,8,4,1,8","","","0",""
"html-keyboard-response","58","149418","0.0-47.0-11.0","J05POSTTR","POST","","null","","display digit","<div class=""stimulus"">8</div>","null","0,8,4,1,8","","","8",""
"html-keyboard-response","59","151208","0.0-47.0-12.0","J05POSTTR","POST","","null","","display digit","<div class=""stimulus"">4</div>","null","0,8,4,1,8","","","4",""
"html-keyboard-response","60","152998","0.0-47.0-13.0","J05POSTTR","POST","","null","","display digit","<div class=""stimulus"">1</div>","null","0,8,4,1,8","","","1",""
"html-keyboard-response","61","154787","0.0-47.0-14.0","J05POSTTR","POST","","null","","display digit","<div class=""stimulus"">8</div>","null","0,8,4,1,8","","","8",""
"survey-html-form-autofocus","62","158845","0.0-47.0-15.0","J05POSTTR","POST","","3394.6000061035156","{""recall"":""18""}","recall","","","08418","18","18","","true"
"html-keyboard-response","63","160309","0.0-47.0-16.0-0.0","J05POSTTR","POST","","null","","fixation cross","<div class='stimulus'>+</div>","null","","","","",""
"html-keyboard-response","64","162098","0.0-47.0-16.0-1.0","J05POSTTR","POST","","null","","display digit","<div class=""stimulus"">2</div>","null","2,6,7,1,0,5,9,7","","","2",""
"html-keyboard-response","65","163886","0.0-47.0-16.0-2.0","J05POSTTR","POST","","null","","display digit","<div class=""stimulus"">6</div>","null","2,6,7,1,0,5,9,7","","","6",""
"html-keyboard-response","66","165675","0.0-47.0-16.0-3.0","J05POSTTR","POST","","null","","display digit","<div class=""stimulus"">7</div>","null","2,6,7,1,0,5,9,7","","","7",""
"html-keyboard-response","67","167464","0.0-47.0-16.0-4.0","J05POSTTR","POST","","null","","display digit","<div class=""stimulus"">1</div>","null","2,6,7,1,0,5,9,7","","","1",""
"html-keyboard-response","68","169253","0.0-47.0-16.0-5.0","J05POSTTR","POST","","null","","display digit","<div class=""stimulus"">0</div>","null","2,6,7,1,0,5,9,7","","","0",""
"html-keyboard-response","69","171042","0.0-47.0-16.0-6.0","J05POSTTR","POST","","null","","display digit","<div class=""stimulus"">5</div>","null","2,6,7,1,0,5,9,7","","","5",""
"html-keyboard-response","70","172832","0.0-47.0-16.0-7.0","J05POSTTR","POST","","null","","display digit","<div class=""stimulus"">9</div>","null","2,6,7,1,0,5,9,7","","","9",""
"html-keyboard-response","71","174620","0.0-47.0-16.0-8.0","J05POSTTR","POST","","null","","display digit","<div class=""stimulus"">7</div>","null","2,6,7,1,0,5,9,7","","","7",""
"survey-html-form-autofocus","72","179411","0.0-47.0-16.0-9.0","J05POSTTR","POST","","4125.5","{""recall"":""597""}","recall","","","26710597","597","597","","true"
"html-keyboard-response","73","180876","0.0-47.0-16.0-10.0","J05POSTTR","POST","","null","","fixation cross","<div class='stimulus'>+</div>","null","","","","",""
"html-keyboard-response","74","182665","0.0-47.0-16.0-11.0","J05POSTTR","POST","","null","","display digit","<div class=""stimulus"">9</div>","null","9,4,8,1,5,0","","","9",""
"html-keyboard-response","75","184453","0.0-47.0-16.0-12.0","J05POSTTR","POST","","null","","display digit","<div class=""stimulus"">4</div>","null","9,4,8,1,5,0","","","4",""
"html-keyboard-response","76","186243","0.0-47.0-16.0-13.0","J05POSTTR","POST","","null","","display digit","<div class=""stimulus"">8</div>","null","9,4,8,1,5,0","","","8",""
"html-keyboard-response","77","188033","0.0-47.0-16.0-14.0","J05POSTTR","POST","","null","","display digit","<div class=""stimulus"">1</div>","null","9,4,8,1,5,0","","","1",""
"html-keyboard-response","78","189822","0.0-47.0-16.0-15.0","J05POSTTR","POST","","null","","display digit","<div class=""stimulus"">5</div>","null","9,4,8,1,5,0","","","5",""
"html-keyboard-response","79","191612","0.0-47.0-16.0-16.0","J05POSTTR","POST","","null","","display digit","<div class=""stimulus"">0</div>","null","9,4,8,1,5,0","","","0",""
"survey-html-form-autofocus","80","199582","0.0-47.0-16.0-17.0","J05POSTTR","POST","","7304.099990844727","{""recall"":""150""}","recall","","","948150","150","150","","true"
"html-keyboard-response","81","201047","0.0-47.0-16.0-18.0-0.0","J05POSTTR","POST","","null","","fixation cross","<div class='stimulus'>+</div>","null","","","","",""
"html-keyboard-response","82","202836","0.0-47.0-16.0-18.0-1.0","J05POSTTR","POST","","null","","display digit","<div class=""stimulus"">4</div>","null","4,7,5,9,2,3,1,9,8,1","","","4",""
"html-keyboard-response","83","204625","0.0-47.0-16.0-18.0-2.0","J05POSTTR","POST","","null","","display digit","<div class=""stimulus"">7</div>","null","4,7,5,9,2,3,1,9,8,1","","","7",""
"html-keyboard-response","84","206415","0.0-47.0-16.0-18.0-3.0","J05POSTTR","POST","","null","","display digit","<div class=""stimulus"">5</div>","null","4,7,5,9,2,3,1,9,8,1","","","5",""
"html-keyboard-response","85","208203","0.0-47.0-16.0-18.0-4.0","J05POSTTR","POST","","null","","display digit","<div class=""stimulus"">9</div>","null","4,7,5,9,2,3,1,9,8,1","","","9",""
"html-keyboard-response","86","209992","0.0-47.0-16.0-18.0-5.0","J05POSTTR","POST","","null","","display digit","<div class=""stimulus"">2</div>","null","4,7,5,9,2,3,1,9,8,1","","","2",""
"html-keyboard-response","87","211782","0.0-47.0-16.0-18.0-6.0","J05POSTTR","POST","","null","","display digit","<div class=""stimulus"">3</div>","null","4,7,5,9,2,3,1,9,8,1","","","3",""
"html-keyboard-response","88","213570","0.0-47.0-16.0-18.0-7.0","J05POSTTR","POST","","null","","display digit","<div class=""stimulus"">1</div>","null","4,7,5,9,2,3,1,9,8,1","","","1",""
"html-keyboard-response","89","215359","0.0-47.0-16.0-18.0-8.0","J05POSTTR","POST","","null","","display digit","<div class=""stimulus"">9</div>","null","4,7,5,9,2,3,1,9,8,1","","","9",""
"html-keyboard-response","90","217148","0.0-47.0-16.0-18.0-9.0","J05POSTTR","POST","","null","","display digit","<div class=""stimulus"">8</div>","null","4,7,5,9,2,3,1,9,8,1","","","8",""
"html-keyboard-response","91","218937","0.0-47.0-16.0-18.0-10.0","J05POSTTR","POST","","null","","display digit","<div class=""stimulus"">1</div>","null","4,7,5,9,2,3,1,9,8,1","","","1",""
"survey-html-form-autofocus","92","229317","0.0-47.0-16.0-18.0-11.0","J05POSTTR","POST","","9713.900009155273","{""recall"":""4981""}","recall","","","4759231981","4981","1981","","false"
"html-keyboard-response","93","230782","0.0-47.0-16.0-18.0-12.0","J05POSTTR","POST","","null","","fixation cross","<div class='stimulus'>+</div>","null","","","","",""
"html-keyboard-response","94","232571","0.0-47.0-16.0-18.0-13.0","J05POSTTR","POST","","null","","display digit","<div class=""stimulus"">3</div>","null","3,4,5,8,7,3","","","3",""
"html-keyboard-response","95","234360","0.0-47.0-16.0-18.0-14.0","J05POSTTR","POST","","null","","display digit","<div class=""stimulus"">4</div>","null","3,4,5,8,7,3","","","4",""
"html-keyboard-response","96","236149","0.0-47.0-16.0-18.0-15.0","J05POSTTR","POST","","null","","display digit","<div class=""stimulus"">5</div>","null","3,4,5,8,7,3","","","5",""
"html-keyboard-response","97","237939","0.0-47.0-16.0-18.0-16.0","J05POSTTR","POST","","null","","display digit","<div class=""stimulus"">8</div>","null","3,4,5,8,7,3","","","8",""
"html-keyboard-response","98","239727","0.0-47.0-16.0-18.0-17.0","J05POSTTR","POST","","null","","display digit","<div class=""stimulus"">7</div>","null","3,4,5,8,7,3","","","7",""
"html-keyboard-response","99","241517","0.0-47.0-16.0-18.0-18.0","J05POSTTR","POST","","null","","display digit","<div class=""stimulus"">3</div>","null","3,4,5,8,7,3","","","3",""
"survey-html-form-autofocus","100","251985","0.0-47.0-16.0-18.0-19.0","J05POSTTR","POST","","9804.5","{""recall"":""5873""}","recall","","","345873","5873","5873","","true"
"html-keyboard-response","101","253450","0.0-47.0-16.0-18.0-20.0-0.0","J05POSTTR","POST","","null","","fixation cross","<div class='stimulus'>+</div>","null","","","","",""
"html-keyboard-response","102","255240","0.0-47.0-16.0-18.0-20.0-1.0","J05POSTTR","POST","","null","","display digit","<div class=""stimulus"">4</div>","null","4,0,9,8,9,3,0,5,4,9,8,0,9","","","4",""
"html-keyboard-response","103","257028","0.0-47.0-16.0-18.0-20.0-2.0","J05POSTTR","POST","","null","","display digit","<div class=""stimulus"">0</div>","null","4,0,9,8,9,3,0,5,4,9,8,0,9","","","0",""
"html-keyboard-response","104","258818","0.0-47.0-16.0-18.0-20.0-3.0","J05POSTTR","POST","","null","","display digit","<div class=""stimulus"">9</div>","null","4,0,9,8,9,3,0,5,4,9,8,0,9","","","9",""
"html-keyboard-response","105","260606","0.0-47.0-16.0-18.0-20.0-4.0","J05POSTTR","POST","","null","","display digit","<div class=""stimulus"">8</div>","null","4,0,9,8,9,3,0,5,4,9,8,0,9","","","8",""
"html-keyboard-response","106","262395","0.0-47.0-16.0-18.0-20.0-5.0","J05POSTTR","POST","","null","","display digit","<div class=""stimulus"">9</div>","null","4,0,9,8,9,3,0,5,4,9,8,0,9","","","9",""
"html-keyboard-response","107","264185","0.0-47.0-16.0-18.0-20.0-6.0","J05POSTTR","POST","","null","","display digit","<div class=""stimulus"">3</div>","null","4,0,9,8,9,3,0,5,4,9,8,0,9","","","3",""
"html-keyboard-response","108","265974","0.0-47.0-16.0-18.0-20.0-7.0","J05POSTTR","POST","","null","","display digit","<div class=""stimulus"">0</div>","null","4,0,9,8,9,3,0,5,4,9,8,0,9","","","0",""
"html-keyboard-response","109","267762","0.0-47.0-16.0-18.0-20.0-8.0","J05POSTTR","POST","","null","","display digit","<div class=""stimulus"">5</div>","null","4,0,9,8,9,3,0,5,4,9,8,0,9","","","5",""
"html-keyboard-response","110","269551","0.0-47.0-16.0-18.0-20.0-9.0","J05POSTTR","POST","","null","","display digit","<div class=""stimulus"">4</div>","null","4,0,9,8,9,3,0,5,4,9,8,0,9","","","4",""
"html-keyboard-response","111","271340","0.0-47.0-16.0-18.0-20.0-10.0","J05POSTTR","POST","","null","","display digit","<div class=""stimulus"">9</div>","null","4,0,9,8,9,3,0,5,4,9,8,0,9","","","9",""
"html-keyboard-response","112","273130","0.0-47.0-16.0-18.0-20.0-11.0","J05POSTTR","POST","","null","","display digit","<div class=""stimulus"">8</div>","null","4,0,9,8,9,3,0,5,4,9,8,0,9","","","8",""
"html-keyboard-response","113","274918","0.0-47.0-16.0-18.0-20.0-12.0","J05POSTTR","POST","","null","","display digit","<div class=""stimulus"">0</div>","null","4,0,9,8,9,3,0,5,4,9,8,0,9","","","0",""
"html-keyboard-response","114","276707","0.0-47.0-16.0-18.0-20.0-13.0","J05POSTTR","POST","","null","","display digit","<div class=""stimulus"">9</div>","null","4,0,9,8,9,3,0,5,4,9,8,0,9","","","9",""
"survey-html-form-autofocus","115","296951","0.0-47.0-16.0-18.0-20.0-14.0","J05POSTTR","POST","","19579.199996948242","{""recall"":""80809""}","recall","","","4098930549809","80809","49809","","false"
"html-keyboard-response","116","298415","0.0-47.0-16.0-18.0-20.0-15.0","J05POSTTR","POST","","null","","fixation cross","<div class='stimulus'>+</div>","null","","","","",""
"html-keyboard-response","117","300205","0.0-47.0-16.0-18.0-20.0-16.0","J05POSTTR","POST","","null","","display digit","<div class=""stimulus"">9</div>","null","9,4,5,9,1,8,7,8,7","","","9",""
"html-keyboard-response","118","301993","0.0-47.0-16.0-18.0-20.0-17.0","J05POSTTR","POST","","null","","display digit","<div class=""stimulus"">4</div>","null","9,4,5,9,1,8,7,8,7","","","4",""
"html-keyboard-response","119","303782","0.0-47.0-16.0-18.0-20.0-18.0","J05POSTTR","POST","","null","","display digit","<div class=""stimulus"">5</div>","null","9,4,5,9,1,8,7,8,7","","","5",""
"html-keyboard-response","120","305570","0.0-47.0-16.0-18.0-20.0-19.0","J05POSTTR","POST","","null","","display digit","<div class=""stimulus"">9</div>","null","9,4,5,9,1,8,7,8,7","","","9",""
"html-keyboard-response","121","307359","0.0-47.0-16.0-18.0-20.0-20.0","J05POSTTR","POST","","null","","display digit","<div class=""stimulus"">1</div>","null","9,4,5,9,1,8,7,8,7","","","1",""
"html-keyboard-response","122","309147","0.0-47.0-16.0-18.0-20.0-21.0","J05POSTTR","POST","","null","","display digit","<div class=""stimulus"">8</div>","null","9,4,5,9,1,8,7,8,7","","","8",""
"html-keyboard-response","123","310937","0.0-47.0-16.0-18.0-20.0-22.0","J05POSTTR","POST","","null","","display digit","<div class=""stimulus"">7</div>","null","9,4,5,9,1,8,7,8,7","","","7",""
"html-keyboard-response","124","312726","0.0-47.0-16.0-18.0-20.0-23.0","J05POSTTR","POST","","null","","display digit","<div class=""stimulus"">8</div>","null","9,4,5,9,1,8,7,8,7","","","8",""
"html-keyboard-response","125","314515","0.0-47.0-16.0-18.0-20.0-24.0","J05POSTTR","POST","","null","","display digit","<div class=""stimulus"">7</div>","null","9,4,5,9,1,8,7,8,7","","","7",""
"survey-html-form-autofocus","126","319502","0.0-47.0-16.0-18.0-20.0-25.0","J05POSTTR","POST","","4321.899993896484","{""recall"":""18787""}","recall","","","945918787","18787","18787","","true"
"html-keyboard-response","127","320966","0.0-47.0-16.0-18.0-20.0-26.0-0.0","J05POSTTR","POST","","null","","fixation cross","<div class='stimulus'>+</div>","null","","","","",""
"html-keyboard-response","128","322755","0.0-47.0-16.0-18.0-20.0-26.0-1.0","J05POSTTR","POST","","null","","display digit","<div class=""stimulus"">4</div>","null","4,7,1,7,1,5,0,1,0,3","","","4",""
"html-keyboard-response","129","324545","0.0-47.0-16.0-18.0-20.0-26.0-2.0","J05POSTTR","POST","","null","","display digit","<div class=""stimulus"">7</div>","null","4,7,1,7,1,5,0,1,0,3","","","7",""
"html-keyboard-response","130","326334","0.0-47.0-16.0-18.0-20.0-26.0-3.0","J05POSTTR","POST","","null","","display digit","<div class=""stimulus"">1</div>","null","4,7,1,7,1,5,0,1,0,3","","","1",""
"html-keyboard-response","131","328124","0.0-47.0-16.0-18.0-20.0-26.0-4.0","J05POSTTR","POST","","null","","display digit","<div class=""stimulus"">7</div>","null","4,7,1,7,1,5,0,1,0,3","","","7",""
"html-keyboard-response","132","329912","0.0-47.0-16.0-18.0-20.0-26.0-5.0","J05POSTTR","POST","","null","","display digit","<div class=""stimulus"">1</div>","null","4,7,1,7,1,5,0,1,0,3","","","1",""
"html-keyboard-response","133","331702","0.0-47.0-16.0-18.0-20.0-26.0-6.0","J05POSTTR","POST","","null","","display digit","<div class=""stimulus"">5</div>","null","4,7,1,7,1,5,0,1,0,3","","","5",""
"html-keyboard-response","134","333491","0.0-47.0-16.0-18.0-20.0-26.0-7.0","J05POSTTR","POST","","null","","display digit","<div class=""stimulus"">0</div>","null","4,7,1,7,1,5,0,1,0,3","","","0",""
"html-keyboard-response","135","335280","0.0-47.0-16.0-18.0-20.0-26.0-8.0","J05POSTTR","POST","","null","","display digit","<div class=""stimulus"">1</div>","null","4,7,1,7,1,5,0,1,0,3","","","1",""
"html-keyboard-response","136","337068","0.0-47.0-16.0-18.0-20.0-26.0-9.0","J05POSTTR","POST","","null","","display digit","<div class=""stimulus"">0</div>","null","4,7,1,7,1,5,0,1,0,3","","","0",""
"html-keyboard-response","137","338857","0.0-47.0-16.0-18.0-20.0-26.0-10.0","J05POSTTR","POST","","null","","display digit","<div class=""stimulus"">3</div>","null","4,7,1,7,1,5,0,1,0,3","","","3",""
"survey-html-form-autofocus","138","349168","0.0-47.0-16.0-18.0-20.0-26.0-11.0","J05POSTTR","POST","","9647.5","{""recall"":""450103""}","recall","","","4717150103","450103","150103","","false"
"html-keyboard-response","139","350631","0.0-47.0-16.0-18.0-20.0-26.0-12.0","J05POSTTR","POST","","null","","fixation cross","<div class='stimulus'>+</div>","null","","","","",""
"html-keyboard-response","140","352420","0.0-47.0-16.0-18.0-20.0-26.0-13.0","J05POSTTR","POST","","null","","display digit","<div class=""stimulus"">4</div>","null","4,6,9,0,5,1,8,3","","","4",""
"html-keyboard-response","141","354208","0.0-47.0-16.0-18.0-20.0-26.0-14.0","J05POSTTR","POST","","null","","display digit","<div class=""stimulus"">6</div>","null","4,6,9,0,5,1,8,3","","","6",""
"html-keyboard-response","142","355996","0.0-47.0-16.0-18.0-20.0-26.0-15.0","J05POSTTR","POST","","null","","display digit","<div class=""stimulus"">9</div>","null","4,6,9,0,5,1,8,3","","","9",""
"html-keyboard-response","143","357786","0.0-47.0-16.0-18.0-20.0-26.0-16.0","J05POSTTR","POST","","null","","display digit","<div class=""stimulus"">0</div>","null","4,6,9,0,5,1,8,3","","","0",""
"html-keyboard-response","144","359575","0.0-47.0-16.0-18.0-20.0-26.0-17.0","J05POSTTR","POST","","null","","display digit","<div class=""stimulus"">5</div>","null","4,6,9,0,5,1,8,3","","","5",""
"html-keyboard-response","145","361364","0.0-47.0-16.0-18.0-20.0-26.0-18.0","J05POSTTR","POST","","null","","display digit","<div class=""stimulus"">1</div>","null","4,6,9,0,5,1,8,3","","","1",""
"html-keyboard-response","146","363154","0.0-47.0-16.0-18.0-20.0-26.0-19.0","J05POSTTR","POST","","null","","display digit","<div class=""stimulus"">8</div>","null","4,6,9,0,5,1,8,3","","","8",""
"html-keyboard-response","147","364942","0.0-47.0-16.0-18.0-20.0-26.0-20.0","J05POSTTR","POST","","null","","display digit","<div class=""stimulus"">3</div>","null","4,6,9,0,5,1,8,3","","","3",""
"survey-html-form-autofocus","148","371135","0.0-47.0-16.0-18.0-20.0-26.0-21.0","J05POSTTR","POST","","5528.5","{""recall"":""405183""}","recall","","","46905183","405183","905183","","false"
"html-keyboard-response","149","373439","0.0-48.0","J05POSTTR","POST","","1640.6000061035156","","","<p>End of the experiment.<br/>			   		You reached level 6 and your					total score is 8.</p>					<p class=""important"">PRESS SPACE TO FINISH THE EXPERIMENT.</p>","32","","","","",""
"fullscreen","150","374454","0.0-49.0","J05POSTTR","POST","true","","","","","","","","","",""
