"trial_type","trial_index","time_elapsed","internal_node_id","userID","sessionType","success","rt","responses","stage","stimulus","key_press","sequence","recall","sequence_last_digits","digit","correct"
"pavlovia","0","3","0.0-0.0","B12POSTTR","POST","","","","","","","","","","",""
"fullscreen","1","3161","0.0-1.0","B12POSTTR","POST","true","","","","","","","","","",""
"survey-html-form","2","26295","0.0-2.0","B12POSTTR","POST","","22469.40000152588","{""userID"":""B12POSTTR"",""type"":""POST""}","userID","","","","","","",""
"html-keyboard-response","3","39749","0.0-3.0","B12POSTTR","POST","","12790.600006103516","","","<p>Welcome to this task.</p>			<p>You will see a set of numbers, presented one at a time.<br/>			You need to pay attention to the numbers in the list and their order.<br/>			The list will end abruptly at any time. You will be told to enter the LAST X number of digits.</p>			<p>[Press SPACE to practice]</p>","32","","","","",""
"html-keyboard-response","4","40562","0.0-4.0","B12POSTTR","POST","","null","","fixation cross","<div class='stimulus'>+</div>","null","","","","",""
"html-keyboard-response","5","42353","0.0-5.0","B12POSTTR","POST","","null","","practice display digit","<div class=""stimulus"">9</div>","null","9,8,3","","","",""
"html-keyboard-response","6","44142","0.0-6.0","B12POSTTR","POST","","null","","practice display digit","<div class=""stimulus"">8</div>","null","9,8,3","","","",""
"html-keyboard-response","7","45931","0.0-7.0","B12POSTTR","POST","","null","","practice display digit","<div class=""stimulus"">3</div>","null","9,8,3","","","",""
"survey-html-form-autofocus","8","49413","0.0-8.0","B12POSTTR","POST","","2813.2999954223633","{""recall"":""83""}","practice recall","","","983","","83","",""
"html-keyboard-response","9","70079","0.0-9.0","B12POSTTR","POST","","20003.59999847412","","","<span class='correct'>Perfect!</span><br/>Press SPACE to continue.","32","","","","",""
"html-keyboard-response","10","70892","0.0-10.0","B12POSTTR","POST","","null","","fixation cross","<div class='stimulus'>+</div>","null","","","","",""
"html-keyboard-response","11","72681","0.0-11.0","B12POSTTR","POST","","null","","practice display digit","<div class=""stimulus"">4</div>","null","4,8,2,1,9","","","",""
"html-keyboard-response","12","74470","0.0-12.0","B12POSTTR","POST","","null","","practice display digit","<div class=""stimulus"">8</div>","null","4,8,2,1,9","","","",""
"html-keyboard-response","13","76259","0.0-13.0","B12POSTTR","POST","","null","","practice display digit","<div class=""stimulus"">2</div>","null","4,8,2,1,9","","","",""
"html-keyboard-response","14","78048","0.0-14.0","B12POSTTR","POST","","null","","practice display digit","<div class=""stimulus"">1</div>","null","4,8,2,1,9","","","",""
"html-keyboard-response","15","79837","0.0-15.0","B12POSTTR","POST","","null","","practice display digit","<div class=""stimulus"">9</div>","null","4,8,2,1,9","","","",""
"survey-html-form-autofocus","16","83012","0.0-16.0","B12POSTTR","POST","","2509.599998474121","{""recall"":""219""}","practice recall","","","48219","","219","",""
"html-keyboard-response","17","84527","0.0-17.0","B12POSTTR","POST","","852.7999954223633","","","<span class='correct'>Perfect!</span><br/>Press SPACE to continue.","32","","","","",""
"html-keyboard-response","18","85341","0.0-18.0","B12POSTTR","POST","","null","","fixation cross","<div class='stimulus'>+</div>","null","","","","",""
"html-keyboard-response","19","87130","0.0-19.0","B12POSTTR","POST","","null","","practice display digit","<div class=""stimulus"">5</div>","null","5,7,1,9,4,2,3,6","","","",""
"html-keyboard-response","20","88918","0.0-20.0","B12POSTTR","POST","","null","","practice display digit","<div class=""stimulus"">7</div>","null","5,7,1,9,4,2,3,6","","","",""
"html-keyboard-response","21","90707","0.0-21.0","B12POSTTR","POST","","null","","practice display digit","<div class=""stimulus"">1</div>","null","5,7,1,9,4,2,3,6","","","",""
"html-keyboard-response","22","92496","0.0-22.0","B12POSTTR","POST","","null","","practice display digit","<div class=""stimulus"">9</div>","null","5,7,1,9,4,2,3,6","","","",""
"html-keyboard-response","23","94285","0.0-23.0","B12POSTTR","POST","","null","","practice display digit","<div class=""stimulus"">4</div>","null","5,7,1,9,4,2,3,6","","","",""
"html-keyboard-response","24","96074","0.0-24.0","B12POSTTR","POST","","null","","practice display digit","<div class=""stimulus"">2</div>","null","5,7,1,9,4,2,3,6","","","",""
"html-keyboard-response","25","97863","0.0-25.0","B12POSTTR","POST","","null","","practice display digit","<div class=""stimulus"">3</div>","null","5,7,1,9,4,2,3,6","","","",""
"html-keyboard-response","26","99653","0.0-26.0","B12POSTTR","POST","","null","","practice display digit","<div class=""stimulus"">6</div>","null","5,7,1,9,4,2,3,6","","","",""
"survey-html-form-autofocus","27","108909","0.0-27.0","B12POSTTR","POST","","8591.199996948242","{""recall"":""4236""}","practice recall","","","57194236","","4236","",""
"html-keyboard-response","28","110880","0.0-28.0","B12POSTTR","POST","","1308.1999969482422","","","<span class='correct'>Perfect!</span><br/>Press SPACE to continue.","32","","","","",""
"html-keyboard-response","29","112987","0.0-29.0","B12POSTTR","POST","","2093.900001525879","","","<p>That was the practice section.<br/>			<p>Now goes the official part of the task.<br/>			You won't be given any feedback on your performance.</p>			<p>R U ready?</p>			<p>[Press Y to begin]</p>","89","","","","",""
"html-keyboard-response","30","114451","0.0-30.0","B12POSTTR","POST","","null","","fixation cross","<div class='stimulus'>+</div>","null","","","","",""
"html-keyboard-response","31","116240","0.0-31.0","B12POSTTR","POST","","null","","display digit","<div class=""stimulus"">0</div>","null","0,8,9,2,7,5,9,5,1,0","","","0",""
"html-keyboard-response","32","118028","0.0-32.0","B12POSTTR","POST","","null","","display digit","<div class=""stimulus"">8</div>","null","0,8,9,2,7,5,9,5,1,0","","","8",""
"html-keyboard-response","33","119818","0.0-33.0","B12POSTTR","POST","","null","","display digit","<div class=""stimulus"">9</div>","null","0,8,9,2,7,5,9,5,1,0","","","9",""
"html-keyboard-response","34","121607","0.0-34.0","B12POSTTR","POST","","null","","display digit","<div class=""stimulus"">2</div>","null","0,8,9,2,7,5,9,5,1,0","","","2",""
"html-keyboard-response","35","123396","0.0-35.0","B12POSTTR","POST","","null","","display digit","<div class=""stimulus"">7</div>","null","0,8,9,2,7,5,9,5,1,0","","","7",""
"html-keyboard-response","36","125185","0.0-36.0","B12POSTTR","POST","","null","","display digit","<div class=""stimulus"">5</div>","null","0,8,9,2,7,5,9,5,1,0","","","5",""
"html-keyboard-response","37","126974","0.0-37.0","B12POSTTR","POST","","null","","display digit","<div class=""stimulus"">9</div>","null","0,8,9,2,7,5,9,5,1,0","","","9",""
"html-keyboard-response","38","128764","0.0-38.0","B12POSTTR","POST","","null","","display digit","<div class=""stimulus"">5</div>","null","0,8,9,2,7,5,9,5,1,0","","","5",""
"html-keyboard-response","39","130552","0.0-39.0","B12POSTTR","POST","","null","","display digit","<div class=""stimulus"">1</div>","null","0,8,9,2,7,5,9,5,1,0","","","1",""
"html-keyboard-response","40","132340","0.0-40.0","B12POSTTR","POST","","null","","display digit","<div class=""stimulus"">0</div>","null","0,8,9,2,7,5,9,5,1,0","","","0",""
"survey-html-form-autofocus","41","135699","0.0-41.0","B12POSTTR","POST","","2692.8999938964844","{""recall"":""0""}","recall","","","0892759510","0","0","","true"
"html-keyboard-response","42","137163","0.0-42.0","B12POSTTR","POST","","null","","fixation cross","<div class='stimulus'>+</div>","null","","","","",""
"html-keyboard-response","43","138951","0.0-43.0","B12POSTTR","POST","","null","","display digit","<div class=""stimulus"">0</div>","null","0,4,3,8,4,7,8,1,6","","","0",""
"html-keyboard-response","44","140740","0.0-44.0","B12POSTTR","POST","","null","","display digit","<div class=""stimulus"">4</div>","null","0,4,3,8,4,7,8,1,6","","","4",""
"html-keyboard-response","45","142529","0.0-45.0","B12POSTTR","POST","","null","","display digit","<div class=""stimulus"">3</div>","null","0,4,3,8,4,7,8,1,6","","","3",""
"html-keyboard-response","46","144318","0.0-46.0","B12POSTTR","POST","","null","","display digit","<div class=""stimulus"">8</div>","null","0,4,3,8,4,7,8,1,6","","","8",""
"html-keyboard-response","47","146107","0.0-47.0","B12POSTTR","POST","","null","","display digit","<div class=""stimulus"">4</div>","null","0,4,3,8,4,7,8,1,6","","","4",""
"html-keyboard-response","48","147896","0.0-48.0","B12POSTTR","POST","","null","","display digit","<div class=""stimulus"">7</div>","null","0,4,3,8,4,7,8,1,6","","","7",""
"html-keyboard-response","49","149686","0.0-49.0","B12POSTTR","POST","","null","","display digit","<div class=""stimulus"">8</div>","null","0,4,3,8,4,7,8,1,6","","","8",""
"html-keyboard-response","50","151475","0.0-50.0","B12POSTTR","POST","","null","","display digit","<div class=""stimulus"">1</div>","null","0,4,3,8,4,7,8,1,6","","","1",""
"html-keyboard-response","51","153264","0.0-51.0","B12POSTTR","POST","","null","","display digit","<div class=""stimulus"">6</div>","null","0,4,3,8,4,7,8,1,6","","","6",""
"survey-html-form-autofocus","52","156956","0.0-52.0","B12POSTTR","POST","","3027.199996948242","{""recall"":""6""}","recall","","","043847816","6","6","","true"
"html-keyboard-response","53","158420","0.0-53.0-0.0","B12POSTTR","POST","","null","","fixation cross","<div class='stimulus'>+</div>","null","","","","",""
"html-keyboard-response","54","160210","0.0-53.0-1.0","B12POSTTR","POST","","null","","display digit","<div class=""stimulus"">9</div>","null","9,3,1,0,5,7,0","","","9",""
"html-keyboard-response","55","161999","0.0-53.0-2.0","B12POSTTR","POST","","null","","display digit","<div class=""stimulus"">3</div>","null","9,3,1,0,5,7,0","","","3",""
"html-keyboard-response","56","163788","0.0-53.0-3.0","B12POSTTR","POST","","null","","display digit","<div class=""stimulus"">1</div>","null","9,3,1,0,5,7,0","","","1",""
"html-keyboard-response","57","165577","0.0-53.0-4.0","B12POSTTR","POST","","null","","display digit","<div class=""stimulus"">0</div>","null","9,3,1,0,5,7,0","","","0",""
"html-keyboard-response","58","167366","0.0-53.0-5.0","B12POSTTR","POST","","null","","display digit","<div class=""stimulus"">5</div>","null","9,3,1,0,5,7,0","","","5",""
"html-keyboard-response","59","169155","0.0-53.0-6.0","B12POSTTR","POST","","null","","display digit","<div class=""stimulus"">7</div>","null","9,3,1,0,5,7,0","","","7",""
"html-keyboard-response","60","170944","0.0-53.0-7.0","B12POSTTR","POST","","null","","display digit","<div class=""stimulus"">0</div>","null","9,3,1,0,5,7,0","","","0",""
"survey-html-form-autofocus","61","174394","0.0-53.0-8.0","B12POSTTR","POST","","2785.7000045776367","{""recall"":""70""}","recall","","","9310570","70","70","","true"
"html-keyboard-response","62","175858","0.0-53.0-9.0","B12POSTTR","POST","","null","","fixation cross","<div class='stimulus'>+</div>","null","","","","",""
"html-keyboard-response","63","177647","0.0-53.0-10.0","B12POSTTR","POST","","null","","display digit","<div class=""stimulus"">3</div>","null","3,0,7,1,7,2","","","3",""
"html-keyboard-response","64","179436","0.0-53.0-11.0","B12POSTTR","POST","","null","","display digit","<div class=""stimulus"">0</div>","null","3,0,7,1,7,2","","","0",""
"html-keyboard-response","65","181224","0.0-53.0-12.0","B12POSTTR","POST","","null","","display digit","<div class=""stimulus"">7</div>","null","3,0,7,1,7,2","","","7",""
"html-keyboard-response","66","183013","0.0-53.0-13.0","B12POSTTR","POST","","null","","display digit","<div class=""stimulus"">1</div>","null","3,0,7,1,7,2","","","1",""
"html-keyboard-response","67","184802","0.0-53.0-14.0","B12POSTTR","POST","","null","","display digit","<div class=""stimulus"">7</div>","null","3,0,7,1,7,2","","","7",""
"html-keyboard-response","68","186590","0.0-53.0-15.0","B12POSTTR","POST","","null","","display digit","<div class=""stimulus"">2</div>","null","3,0,7,1,7,2","","","2",""
"survey-html-form-autofocus","69","190342","0.0-53.0-16.0","B12POSTTR","POST","","3087.2999954223633","{""recall"":""72""}","recall","","","307172","72","72","","true"
"html-keyboard-response","70","191806","0.0-53.0-17.0-0.0","B12POSTTR","POST","","null","","fixation cross","<div class='stimulus'>+</div>","null","","","","",""
"html-keyboard-response","71","193595","0.0-53.0-17.0-1.0","B12POSTTR","POST","","null","","display digit","<div class=""stimulus"">1</div>","null","1,9,1,9,8,1,7,9,1,4","","","1",""
"html-keyboard-response","72","195383","0.0-53.0-17.0-2.0","B12POSTTR","POST","","null","","display digit","<div class=""stimulus"">9</div>","null","1,9,1,9,8,1,7,9,1,4","","","9",""
"html-keyboard-response","73","197172","0.0-53.0-17.0-3.0","B12POSTTR","POST","","null","","display digit","<div class=""stimulus"">1</div>","null","1,9,1,9,8,1,7,9,1,4","","","1",""
"html-keyboard-response","74","198961","0.0-53.0-17.0-4.0","B12POSTTR","POST","","null","","display digit","<div class=""stimulus"">9</div>","null","1,9,1,9,8,1,7,9,1,4","","","9",""
"html-keyboard-response","75","200749","0.0-53.0-17.0-5.0","B12POSTTR","POST","","null","","display digit","<div class=""stimulus"">8</div>","null","1,9,1,9,8,1,7,9,1,4","","","8",""
"html-keyboard-response","76","202538","0.0-53.0-17.0-6.0","B12POSTTR","POST","","null","","display digit","<div class=""stimulus"">1</div>","null","1,9,1,9,8,1,7,9,1,4","","","1",""
"html-keyboard-response","77","204327","0.0-53.0-17.0-7.0","B12POSTTR","POST","","null","","display digit","<div class=""stimulus"">7</div>","null","1,9,1,9,8,1,7,9,1,4","","","7",""
"html-keyboard-response","78","206116","0.0-53.0-17.0-8.0","B12POSTTR","POST","","null","","display digit","<div class=""stimulus"">9</div>","null","1,9,1,9,8,1,7,9,1,4","","","9",""
"html-keyboard-response","79","207904","0.0-53.0-17.0-9.0","B12POSTTR","POST","","null","","display digit","<div class=""stimulus"">1</div>","null","1,9,1,9,8,1,7,9,1,4","","","1",""
"html-keyboard-response","80","209693","0.0-53.0-17.0-10.0","B12POSTTR","POST","","null","","display digit","<div class=""stimulus"">4</div>","null","1,9,1,9,8,1,7,9,1,4","","","4",""
"survey-html-form-autofocus","81","214914","0.0-53.0-17.0-11.0","B12POSTTR","POST","","4556.300003051758","{""recall"":""914""}","recall","","","1919817914","914","914","","true"
"html-keyboard-response","82","216379","0.0-53.0-17.0-12.0","B12POSTTR","POST","","null","","fixation cross","<div class='stimulus'>+</div>","null","","","","",""
"html-keyboard-response","83","218169","0.0-53.0-17.0-13.0","B12POSTTR","POST","","null","","display digit","<div class=""stimulus"">5</div>","null","5,7,6,4,7,8,1,9","","","5",""
"html-keyboard-response","84","219957","0.0-53.0-17.0-14.0","B12POSTTR","POST","","null","","display digit","<div class=""stimulus"">7</div>","null","5,7,6,4,7,8,1,9","","","7",""
"html-keyboard-response","85","221746","0.0-53.0-17.0-15.0","B12POSTTR","POST","","null","","display digit","<div class=""stimulus"">6</div>","null","5,7,6,4,7,8,1,9","","","6",""
"html-keyboard-response","86","223535","0.0-53.0-17.0-16.0","B12POSTTR","POST","","null","","display digit","<div class=""stimulus"">4</div>","null","5,7,6,4,7,8,1,9","","","4",""
"html-keyboard-response","87","225324","0.0-53.0-17.0-17.0","B12POSTTR","POST","","null","","display digit","<div class=""stimulus"">7</div>","null","5,7,6,4,7,8,1,9","","","7",""
"html-keyboard-response","88","227112","0.0-53.0-17.0-18.0","B12POSTTR","POST","","null","","display digit","<div class=""stimulus"">8</div>","null","5,7,6,4,7,8,1,9","","","8",""
"html-keyboard-response","89","228901","0.0-53.0-17.0-19.0","B12POSTTR","POST","","null","","display digit","<div class=""stimulus"">1</div>","null","5,7,6,4,7,8,1,9","","","1",""
"html-keyboard-response","90","230689","0.0-53.0-17.0-20.0","B12POSTTR","POST","","null","","display digit","<div class=""stimulus"">9</div>","null","5,7,6,4,7,8,1,9","","","9",""
"survey-html-form-autofocus","91","235071","0.0-53.0-17.0-21.0","B12POSTTR","POST","","3715.6000061035156","{""recall"":""819""}","recall","","","57647819","819","819","","true"
"html-keyboard-response","92","236534","0.0-53.0-17.0-22.0-0.0","B12POSTTR","POST","","null","","fixation cross","<div class='stimulus'>+</div>","null","","","","",""
"html-keyboard-response","93","238323","0.0-53.0-17.0-22.0-1.0","B12POSTTR","POST","","null","","display digit","<div class=""stimulus"">4</div>","null","4,7,3,7","","","4",""
"html-keyboard-response","94","240111","0.0-53.0-17.0-22.0-2.0","B12POSTTR","POST","","null","","display digit","<div class=""stimulus"">7</div>","null","4,7,3,7","","","7",""
"html-keyboard-response","95","241900","0.0-53.0-17.0-22.0-3.0","B12POSTTR","POST","","null","","display digit","<div class=""stimulus"">3</div>","null","4,7,3,7","","","3",""
"html-keyboard-response","96","243689","0.0-53.0-17.0-22.0-4.0","B12POSTTR","POST","","null","","display digit","<div class=""stimulus"">7</div>","null","4,7,3,7","","","7",""
"survey-html-form-autofocus","97","250866","0.0-53.0-17.0-22.0-5.0","B12POSTTR","POST","","6511.400001525879","{""recall"":""8137""}","recall","","","4737","8137","4737","","false"
"html-keyboard-response","98","252331","0.0-53.0-17.0-22.0-6.0","B12POSTTR","POST","","null","","fixation cross","<div class='stimulus'>+</div>","null","","","","",""
"html-keyboard-response","99","254120","0.0-53.0-17.0-22.0-7.0","B12POSTTR","POST","","null","","display digit","<div class=""stimulus"">0</div>","null","0,6,7,6,3,0,9,7,0,6,8,6,7","","","0",""
"html-keyboard-response","100","255909","0.0-53.0-17.0-22.0-8.0","B12POSTTR","POST","","null","","display digit","<div class=""stimulus"">6</div>","null","0,6,7,6,3,0,9,7,0,6,8,6,7","","","6",""
"html-keyboard-response","101","257698","0.0-53.0-17.0-22.0-9.0","B12POSTTR","POST","","null","","display digit","<div class=""stimulus"">7</div>","null","0,6,7,6,3,0,9,7,0,6,8,6,7","","","7",""
"html-keyboard-response","102","259488","0.0-53.0-17.0-22.0-10.0","B12POSTTR","POST","","null","","display digit","<div class=""stimulus"">6</div>","null","0,6,7,6,3,0,9,7,0,6,8,6,7","","","6",""
"html-keyboard-response","103","261276","0.0-53.0-17.0-22.0-11.0","B12POSTTR","POST","","null","","display digit","<div class=""stimulus"">3</div>","null","0,6,7,6,3,0,9,7,0,6,8,6,7","","","3",""
"html-keyboard-response","104","263065","0.0-53.0-17.0-22.0-12.0","B12POSTTR","POST","","null","","display digit","<div class=""stimulus"">0</div>","null","0,6,7,6,3,0,9,7,0,6,8,6,7","","","0",""
"html-keyboard-response","105","264853","0.0-53.0-17.0-22.0-13.0","B12POSTTR","POST","","null","","display digit","<div class=""stimulus"">9</div>","null","0,6,7,6,3,0,9,7,0,6,8,6,7","","","9",""
"html-keyboard-response","106","266642","0.0-53.0-17.0-22.0-14.0","B12POSTTR","POST","","null","","display digit","<div class=""stimulus"">7</div>","null","0,6,7,6,3,0,9,7,0,6,8,6,7","","","7",""
"html-keyboard-response","107","268431","0.0-53.0-17.0-22.0-15.0","B12POSTTR","POST","","null","","display digit","<div class=""stimulus"">0</div>","null","0,6,7,6,3,0,9,7,0,6,8,6,7","","","0",""
"html-keyboard-response","108","270220","0.0-53.0-17.0-22.0-16.0","B12POSTTR","POST","","null","","display digit","<div class=""stimulus"">6</div>","null","0,6,7,6,3,0,9,7,0,6,8,6,7","","","6",""
"html-keyboard-response","109","272008","0.0-53.0-17.0-22.0-17.0","B12POSTTR","POST","","null","","display digit","<div class=""stimulus"">8</div>","null","0,6,7,6,3,0,9,7,0,6,8,6,7","","","8",""
"html-keyboard-response","110","273797","0.0-53.0-17.0-22.0-18.0","B12POSTTR","POST","","null","","display digit","<div class=""stimulus"">6</div>","null","0,6,7,6,3,0,9,7,0,6,8,6,7","","","6",""
"html-keyboard-response","111","275586","0.0-53.0-17.0-22.0-19.0","B12POSTTR","POST","","null","","display digit","<div class=""stimulus"">7</div>","null","0,6,7,6,3,0,9,7,0,6,8,6,7","","","7",""
"survey-html-form-autofocus","112","281321","0.0-53.0-17.0-22.0-20.0","B12POSTTR","POST","","5069.900001525879","{""recall"":""9678""}","recall","","","0676309706867","9678","6867","","false"
"html-keyboard-response","113","287104","0.0-54.0","B12POSTTR","POST","","5119.5","","","<p>End of the experiment.<br/>			   		You reached level 4 and your					total score is 6.</p>					<p class=""important"">PRESS SPACE TO FINISH THE EXPERIMENT.</p>","32","","","","",""
"fullscreen","114","288118","0.0-55.0","B12POSTTR","POST","true","","","","","","","","","",""
