"trial_type","trial_index","time_elapsed","internal_node_id","userID","sessionType","success","rt","responses","stage","stimulus","key_press","sequence","recall","sequence_last_digits","digit","correct"
"pavlovia","0","3","0.0-0.0","B03POSTSH","POST","","","","","","","","","","",""
"fullscreen","1","2925","0.0-1.0","B03POSTSH","POST","true","","","","","","","","","",""
"survey-html-form","2","13043","0.0-2.0","B03POSTSH","POST","","9452.900001525879","{""userID"":""B03POSTSH"",""type"":""POST""}","userID","","","","","","",""
"html-keyboard-response","3","19464","0.0-3.0","B03POSTSH","POST","","5758.199996948242","","","<p>Welcome to this task.</p>			<p>You will see a set of numbers, presented one at a time.<br/>			You need to pay attention to the numbers in the list and their order.<br/>			The list will end abruptly at any time. You will be told to enter the LAST X number of digits.</p>			<p>[Press SPACE to practice]</p>","32","","","","",""
"html-keyboard-response","4","20277","0.0-4.0","B03POSTSH","POST","","null","","fixation cross","<div class='stimulus'>+</div>","null","","","","",""
"html-keyboard-response","5","22068","0.0-5.0","B03POSTSH","POST","","null","","practice display digit","<div class=""stimulus"">9</div>","null","9,8,3","","","",""
"html-keyboard-response","6","23858","0.0-6.0","B03POSTSH","POST","","null","","practice display digit","<div class=""stimulus"">8</div>","null","9,8,3","","","",""
"html-keyboard-response","7","25647","0.0-7.0","B03POSTSH","POST","","null","","practice display digit","<div class=""stimulus"">3</div>","null","9,8,3","","","",""
"survey-html-form-autofocus","8","29609","0.0-8.0","B03POSTSH","POST","","3293.400001525879","{""recall"":""83""}","practice recall","","","983","","83","",""
"html-keyboard-response","9","31087","0.0-9.0","B03POSTSH","POST","","815.3999938964844","","","<span class='correct'>Perfect!</span><br/>Press SPACE to continue.","32","","","","",""
"html-keyboard-response","10","31901","0.0-10.0","B03POSTSH","POST","","null","","fixation cross","<div class='stimulus'>+</div>","null","","","","",""
"html-keyboard-response","11","33690","0.0-11.0","B03POSTSH","POST","","null","","practice display digit","<div class=""stimulus"">4</div>","null","4,8,2,1,9","","","",""
"html-keyboard-response","12","35479","0.0-12.0","B03POSTSH","POST","","null","","practice display digit","<div class=""stimulus"">8</div>","null","4,8,2,1,9","","","",""
"html-keyboard-response","13","37269","0.0-13.0","B03POSTSH","POST","","null","","practice display digit","<div class=""stimulus"">2</div>","null","4,8,2,1,9","","","",""
"html-keyboard-response","14","39058","0.0-14.0","B03POSTSH","POST","","null","","practice display digit","<div class=""stimulus"">1</div>","null","4,8,2,1,9","","","",""
"html-keyboard-response","15","40847","0.0-15.0","B03POSTSH","POST","","null","","practice display digit","<div class=""stimulus"">9</div>","null","4,8,2,1,9","","","",""
"survey-html-form-autofocus","16","45175","0.0-16.0","B03POSTSH","POST","","3662.6000061035156","{""recall"":""219""}","practice recall","","","48219","","219","",""
"html-keyboard-response","17","46679","0.0-17.0","B03POSTSH","POST","","841.2999954223633","","","<span class='correct'>Perfect!</span><br/>Press SPACE to continue.","32","","","","",""
"html-keyboard-response","18","47493","0.0-18.0","B03POSTSH","POST","","null","","fixation cross","<div class='stimulus'>+</div>","null","","","","",""
"html-keyboard-response","19","49282","0.0-19.0","B03POSTSH","POST","","null","","practice display digit","<div class=""stimulus"">5</div>","null","5,7,1,9,4,2,3,6","","","",""
"html-keyboard-response","20","51070","0.0-20.0","B03POSTSH","POST","","null","","practice display digit","<div class=""stimulus"">7</div>","null","5,7,1,9,4,2,3,6","","","",""
"html-keyboard-response","21","52858","0.0-21.0","B03POSTSH","POST","","null","","practice display digit","<div class=""stimulus"">1</div>","null","5,7,1,9,4,2,3,6","","","",""
"html-keyboard-response","22","54647","0.0-22.0","B03POSTSH","POST","","null","","practice display digit","<div class=""stimulus"">9</div>","null","5,7,1,9,4,2,3,6","","","",""
"html-keyboard-response","23","56436","0.0-23.0","B03POSTSH","POST","","null","","practice display digit","<div class=""stimulus"">4</div>","null","5,7,1,9,4,2,3,6","","","",""
"html-keyboard-response","24","58225","0.0-24.0","B03POSTSH","POST","","null","","practice display digit","<div class=""stimulus"">2</div>","null","5,7,1,9,4,2,3,6","","","",""
"html-keyboard-response","25","60013","0.0-25.0","B03POSTSH","POST","","null","","practice display digit","<div class=""stimulus"">3</div>","null","5,7,1,9,4,2,3,6","","","",""
"html-keyboard-response","26","61802","0.0-26.0","B03POSTSH","POST","","null","","practice display digit","<div class=""stimulus"">6</div>","null","5,7,1,9,4,2,3,6","","","",""
"survey-html-form-autofocus","27","66408","0.0-27.0","B03POSTSH","POST","","3942.300003051758","{""recall"":""4236""}","practice recall","","","57194236","","4236","",""
"html-keyboard-response","28","67813","0.0-28.0","B03POSTSH","POST","","741.5999984741211","","","<span class='correct'>Perfect!</span><br/>Press SPACE to continue.","32","","","","",""
"html-keyboard-response","29","69104","0.0-29.0","B03POSTSH","POST","","1278.7000045776367","","","<p>That was the practice section.<br/>			<p>Now goes the official part of the task.<br/>			You won't be given any feedback on your performance.</p>			<p>R U ready?</p>			<p>[Press Y to begin]</p>","89","","","","",""
"html-keyboard-response","30","70569","0.0-30.0","B03POSTSH","POST","","null","","fixation cross","<div class='stimulus'>+</div>","null","","","","",""
"html-keyboard-response","31","72358","0.0-31.0","B03POSTSH","POST","","null","","display digit","<div class=""stimulus"">6</div>","null","6,3,6,9,4,6,5,4,0,2,8,5,3","","","6",""
"html-keyboard-response","32","74147","0.0-32.0","B03POSTSH","POST","","null","","display digit","<div class=""stimulus"">3</div>","null","6,3,6,9,4,6,5,4,0,2,8,5,3","","","3",""
"html-keyboard-response","33","75934","0.0-33.0","B03POSTSH","POST","","null","","display digit","<div class=""stimulus"">6</div>","null","6,3,6,9,4,6,5,4,0,2,8,5,3","","","6",""
"html-keyboard-response","34","77724","0.0-34.0","B03POSTSH","POST","","null","","display digit","<div class=""stimulus"">9</div>","null","6,3,6,9,4,6,5,4,0,2,8,5,3","","","9",""
"html-keyboard-response","35","79514","0.0-35.0","B03POSTSH","POST","","null","","display digit","<div class=""stimulus"">4</div>","null","6,3,6,9,4,6,5,4,0,2,8,5,3","","","4",""
"html-keyboard-response","36","81303","0.0-36.0","B03POSTSH","POST","","null","","display digit","<div class=""stimulus"">6</div>","null","6,3,6,9,4,6,5,4,0,2,8,5,3","","","6",""
"html-keyboard-response","37","83092","0.0-37.0","B03POSTSH","POST","","null","","display digit","<div class=""stimulus"">5</div>","null","6,3,6,9,4,6,5,4,0,2,8,5,3","","","5",""
"html-keyboard-response","38","84881","0.0-38.0","B03POSTSH","POST","","null","","display digit","<div class=""stimulus"">4</div>","null","6,3,6,9,4,6,5,4,0,2,8,5,3","","","4",""
"html-keyboard-response","39","86670","0.0-39.0","B03POSTSH","POST","","null","","display digit","<div class=""stimulus"">0</div>","null","6,3,6,9,4,6,5,4,0,2,8,5,3","","","0",""
"html-keyboard-response","40","88458","0.0-40.0","B03POSTSH","POST","","null","","display digit","<div class=""stimulus"">2</div>","null","6,3,6,9,4,6,5,4,0,2,8,5,3","","","2",""
"html-keyboard-response","41","90247","0.0-41.0","B03POSTSH","POST","","null","","display digit","<div class=""stimulus"">8</div>","null","6,3,6,9,4,6,5,4,0,2,8,5,3","","","8",""
"html-keyboard-response","42","92035","0.0-42.0","B03POSTSH","POST","","null","","display digit","<div class=""stimulus"">5</div>","null","6,3,6,9,4,6,5,4,0,2,8,5,3","","","5",""
"html-keyboard-response","43","93824","0.0-43.0","B03POSTSH","POST","","null","","display digit","<div class=""stimulus"">3</div>","null","6,3,6,9,4,6,5,4,0,2,8,5,3","","","3",""
"survey-html-form-autofocus","44","97159","0.0-44.0","B03POSTSH","POST","","2670.2000045776367","{""recall"":""3""}","recall","","","6369465402853","3","3","","true"
"html-keyboard-response","45","98624","0.0-45.0","B03POSTSH","POST","","null","","fixation cross","<div class='stimulus'>+</div>","null","","","","",""
"html-keyboard-response","46","100414","0.0-46.0","B03POSTSH","POST","","null","","display digit","<div class=""stimulus"">3</div>","null","3,0,6,5,6,9,7,9,3,0","","","3",""
"html-keyboard-response","47","102202","0.0-47.0","B03POSTSH","POST","","null","","display digit","<div class=""stimulus"">0</div>","null","3,0,6,5,6,9,7,9,3,0","","","0",""
"html-keyboard-response","48","103992","0.0-48.0","B03POSTSH","POST","","null","","display digit","<div class=""stimulus"">6</div>","null","3,0,6,5,6,9,7,9,3,0","","","6",""
"html-keyboard-response","49","105781","0.0-49.0","B03POSTSH","POST","","null","","display digit","<div class=""stimulus"">5</div>","null","3,0,6,5,6,9,7,9,3,0","","","5",""
"html-keyboard-response","50","107569","0.0-50.0","B03POSTSH","POST","","null","","display digit","<div class=""stimulus"">6</div>","null","3,0,6,5,6,9,7,9,3,0","","","6",""
"html-keyboard-response","51","109358","0.0-51.0","B03POSTSH","POST","","null","","display digit","<div class=""stimulus"">9</div>","null","3,0,6,5,6,9,7,9,3,0","","","9",""
"html-keyboard-response","52","111147","0.0-52.0","B03POSTSH","POST","","null","","display digit","<div class=""stimulus"">7</div>","null","3,0,6,5,6,9,7,9,3,0","","","7",""
"html-keyboard-response","53","112936","0.0-53.0","B03POSTSH","POST","","null","","display digit","<div class=""stimulus"">9</div>","null","3,0,6,5,6,9,7,9,3,0","","","9",""
"html-keyboard-response","54","114725","0.0-54.0","B03POSTSH","POST","","null","","display digit","<div class=""stimulus"">3</div>","null","3,0,6,5,6,9,7,9,3,0","","","3",""
"html-keyboard-response","55","116514","0.0-55.0","B03POSTSH","POST","","null","","display digit","<div class=""stimulus"">0</div>","null","3,0,6,5,6,9,7,9,3,0","","","0",""
"survey-html-form-autofocus","56","119609","0.0-56.0","B03POSTSH","POST","","2430.199996948242","{""recall"":""0""}","recall","","","3065697930","0","0","","true"
"html-keyboard-response","57","121073","0.0-57.0-0.0","B03POSTSH","POST","","null","","fixation cross","<div class='stimulus'>+</div>","null","","","","",""
"html-keyboard-response","58","122862","0.0-57.0-1.0","B03POSTSH","POST","","null","","display digit","<div class=""stimulus"">1</div>","null","1,7,6,4,7,1,6","","","1",""
"html-keyboard-response","59","124651","0.0-57.0-2.0","B03POSTSH","POST","","null","","display digit","<div class=""stimulus"">7</div>","null","1,7,6,4,7,1,6","","","7",""
"html-keyboard-response","60","126440","0.0-57.0-3.0","B03POSTSH","POST","","null","","display digit","<div class=""stimulus"">6</div>","null","1,7,6,4,7,1,6","","","6",""
"html-keyboard-response","61","128229","0.0-57.0-4.0","B03POSTSH","POST","","null","","display digit","<div class=""stimulus"">4</div>","null","1,7,6,4,7,1,6","","","4",""
"html-keyboard-response","62","130019","0.0-57.0-5.0","B03POSTSH","POST","","null","","display digit","<div class=""stimulus"">7</div>","null","1,7,6,4,7,1,6","","","7",""
"html-keyboard-response","63","131808","0.0-57.0-6.0","B03POSTSH","POST","","null","","display digit","<div class=""stimulus"">1</div>","null","1,7,6,4,7,1,6","","","1",""
"html-keyboard-response","64","133598","0.0-57.0-7.0","B03POSTSH","POST","","null","","display digit","<div class=""stimulus"">6</div>","null","1,7,6,4,7,1,6","","","6",""
"survey-html-form-autofocus","65","137509","0.0-57.0-8.0","B03POSTSH","POST","","3246.7999954223633","{""recall"":""16""}","recall","","","1764716","16","16","","true"
"html-keyboard-response","66","138973","0.0-57.0-9.0","B03POSTSH","POST","","null","","fixation cross","<div class='stimulus'>+</div>","null","","","","",""
"html-keyboard-response","67","140761","0.0-57.0-10.0","B03POSTSH","POST","","null","","display digit","<div class=""stimulus"">9</div>","null","9,3,7,9,6,1,9,3,2,6,7","","","9",""
"html-keyboard-response","68","142550","0.0-57.0-11.0","B03POSTSH","POST","","null","","display digit","<div class=""stimulus"">3</div>","null","9,3,7,9,6,1,9,3,2,6,7","","","3",""
"html-keyboard-response","69","144339","0.0-57.0-12.0","B03POSTSH","POST","","null","","display digit","<div class=""stimulus"">7</div>","null","9,3,7,9,6,1,9,3,2,6,7","","","7",""
"html-keyboard-response","70","146129","0.0-57.0-13.0","B03POSTSH","POST","","null","","display digit","<div class=""stimulus"">9</div>","null","9,3,7,9,6,1,9,3,2,6,7","","","9",""
"html-keyboard-response","71","147918","0.0-57.0-14.0","B03POSTSH","POST","","null","","display digit","<div class=""stimulus"">6</div>","null","9,3,7,9,6,1,9,3,2,6,7","","","6",""
"html-keyboard-response","72","149707","0.0-57.0-15.0","B03POSTSH","POST","","null","","display digit","<div class=""stimulus"">1</div>","null","9,3,7,9,6,1,9,3,2,6,7","","","1",""
"html-keyboard-response","73","151495","0.0-57.0-16.0","B03POSTSH","POST","","null","","display digit","<div class=""stimulus"">9</div>","null","9,3,7,9,6,1,9,3,2,6,7","","","9",""
"html-keyboard-response","74","153284","0.0-57.0-17.0","B03POSTSH","POST","","null","","display digit","<div class=""stimulus"">3</div>","null","9,3,7,9,6,1,9,3,2,6,7","","","3",""
"html-keyboard-response","75","155073","0.0-57.0-18.0","B03POSTSH","POST","","null","","display digit","<div class=""stimulus"">2</div>","null","9,3,7,9,6,1,9,3,2,6,7","","","2",""
"html-keyboard-response","76","156862","0.0-57.0-19.0","B03POSTSH","POST","","null","","display digit","<div class=""stimulus"">6</div>","null","9,3,7,9,6,1,9,3,2,6,7","","","6",""
"html-keyboard-response","77","158651","0.0-57.0-20.0","B03POSTSH","POST","","null","","display digit","<div class=""stimulus"">7</div>","null","9,3,7,9,6,1,9,3,2,6,7","","","7",""
"survey-html-form-autofocus","78","163209","0.0-57.0-21.0","B03POSTSH","POST","","3893","{""recall"":""67""}","recall","","","93796193267","67","67","","true"
"html-keyboard-response","79","164673","0.0-57.0-22.0-0.0","B03POSTSH","POST","","null","","fixation cross","<div class='stimulus'>+</div>","null","","","","",""
"html-keyboard-response","80","166462","0.0-57.0-22.0-1.0","B03POSTSH","POST","","null","","display digit","<div class=""stimulus"">9</div>","null","9,6,9","","","9",""
"html-keyboard-response","81","168251","0.0-57.0-22.0-2.0","B03POSTSH","POST","","null","","display digit","<div class=""stimulus"">6</div>","null","9,6,9","","","6",""
"html-keyboard-response","82","170040","0.0-57.0-22.0-3.0","B03POSTSH","POST","","null","","display digit","<div class=""stimulus"">9</div>","null","9,6,9","","","9",""
"survey-html-form-autofocus","83","175108","0.0-57.0-22.0-4.0","B03POSTSH","POST","","4403.599998474121","{""recall"":""969""}","recall","","","969","969","969","","true"
"html-keyboard-response","84","176572","0.0-57.0-22.0-5.0","B03POSTSH","POST","","null","","fixation cross","<div class='stimulus'>+</div>","null","","","","",""
"html-keyboard-response","85","178360","0.0-57.0-22.0-6.0","B03POSTSH","POST","","null","","display digit","<div class=""stimulus"">8</div>","null","8,0,5,1,3,9,2,9","","","8",""
"html-keyboard-response","86","180149","0.0-57.0-22.0-7.0","B03POSTSH","POST","","null","","display digit","<div class=""stimulus"">0</div>","null","8,0,5,1,3,9,2,9","","","0",""
"html-keyboard-response","87","181938","0.0-57.0-22.0-8.0","B03POSTSH","POST","","null","","display digit","<div class=""stimulus"">5</div>","null","8,0,5,1,3,9,2,9","","","5",""
"html-keyboard-response","88","183727","0.0-57.0-22.0-9.0","B03POSTSH","POST","","null","","display digit","<div class=""stimulus"">1</div>","null","8,0,5,1,3,9,2,9","","","1",""
"html-keyboard-response","89","185516","0.0-57.0-22.0-10.0","B03POSTSH","POST","","null","","display digit","<div class=""stimulus"">3</div>","null","8,0,5,1,3,9,2,9","","","3",""
"html-keyboard-response","90","187304","0.0-57.0-22.0-11.0","B03POSTSH","POST","","null","","display digit","<div class=""stimulus"">9</div>","null","8,0,5,1,3,9,2,9","","","9",""
"html-keyboard-response","91","189094","0.0-57.0-22.0-12.0","B03POSTSH","POST","","null","","display digit","<div class=""stimulus"">2</div>","null","8,0,5,1,3,9,2,9","","","2",""
"html-keyboard-response","92","190882","0.0-57.0-22.0-13.0","B03POSTSH","POST","","null","","display digit","<div class=""stimulus"">9</div>","null","8,0,5,1,3,9,2,9","","","9",""
"survey-html-form-autofocus","93","195759","0.0-57.0-22.0-14.0","B03POSTSH","POST","","4212.5","{""recall"":""929""}","recall","","","80513929","929","929","","true"
"html-keyboard-response","94","197224","0.0-57.0-22.0-15.0-0.0","B03POSTSH","POST","","null","","fixation cross","<div class='stimulus'>+</div>","null","","","","",""
"html-keyboard-response","95","199011","0.0-57.0-22.0-15.0-1.0","B03POSTSH","POST","","null","","display digit","<div class=""stimulus"">1</div>","null","1,8,0,9,5,8,2,0,5","","","1",""
"html-keyboard-response","96","200800","0.0-57.0-22.0-15.0-2.0","B03POSTSH","POST","","null","","display digit","<div class=""stimulus"">8</div>","null","1,8,0,9,5,8,2,0,5","","","8",""
"html-keyboard-response","97","202589","0.0-57.0-22.0-15.0-3.0","B03POSTSH","POST","","null","","display digit","<div class=""stimulus"">0</div>","null","1,8,0,9,5,8,2,0,5","","","0",""
"html-keyboard-response","98","204378","0.0-57.0-22.0-15.0-4.0","B03POSTSH","POST","","null","","display digit","<div class=""stimulus"">9</div>","null","1,8,0,9,5,8,2,0,5","","","9",""
"html-keyboard-response","99","206166","0.0-57.0-22.0-15.0-5.0","B03POSTSH","POST","","null","","display digit","<div class=""stimulus"">5</div>","null","1,8,0,9,5,8,2,0,5","","","5",""
"html-keyboard-response","100","207956","0.0-57.0-22.0-15.0-6.0","B03POSTSH","POST","","null","","display digit","<div class=""stimulus"">8</div>","null","1,8,0,9,5,8,2,0,5","","","8",""
"html-keyboard-response","101","209745","0.0-57.0-22.0-15.0-7.0","B03POSTSH","POST","","null","","display digit","<div class=""stimulus"">2</div>","null","1,8,0,9,5,8,2,0,5","","","2",""
"html-keyboard-response","102","211533","0.0-57.0-22.0-15.0-8.0","B03POSTSH","POST","","null","","display digit","<div class=""stimulus"">0</div>","null","1,8,0,9,5,8,2,0,5","","","0",""
"html-keyboard-response","103","213322","0.0-57.0-22.0-15.0-9.0","B03POSTSH","POST","","null","","display digit","<div class=""stimulus"">5</div>","null","1,8,0,9,5,8,2,0,5","","","5",""
"survey-html-form-autofocus","104","218376","0.0-57.0-22.0-15.0-10.0","B03POSTSH","POST","","4389.600006103516","{""recall"":""8205""}","recall","","","180958205","8205","8205","","true"
"html-keyboard-response","105","219841","0.0-57.0-22.0-15.0-11.0","B03POSTSH","POST","","null","","fixation cross","<div class='stimulus'>+</div>","null","","","","",""
"html-keyboard-response","106","221630","0.0-57.0-22.0-15.0-12.0","B03POSTSH","POST","","null","","display digit","<div class=""stimulus"">4</div>","null","4,9,5,0,9,5,0,3,5","","","4",""
"html-keyboard-response","107","223420","0.0-57.0-22.0-15.0-13.0","B03POSTSH","POST","","null","","display digit","<div class=""stimulus"">9</div>","null","4,9,5,0,9,5,0,3,5","","","9",""
"html-keyboard-response","108","225208","0.0-57.0-22.0-15.0-14.0","B03POSTSH","POST","","null","","display digit","<div class=""stimulus"">5</div>","null","4,9,5,0,9,5,0,3,5","","","5",""
"html-keyboard-response","109","226998","0.0-57.0-22.0-15.0-15.0","B03POSTSH","POST","","null","","display digit","<div class=""stimulus"">0</div>","null","4,9,5,0,9,5,0,3,5","","","0",""
"html-keyboard-response","110","228786","0.0-57.0-22.0-15.0-16.0","B03POSTSH","POST","","null","","display digit","<div class=""stimulus"">9</div>","null","4,9,5,0,9,5,0,3,5","","","9",""
"html-keyboard-response","111","230575","0.0-57.0-22.0-15.0-17.0","B03POSTSH","POST","","null","","display digit","<div class=""stimulus"">5</div>","null","4,9,5,0,9,5,0,3,5","","","5",""
"html-keyboard-response","112","232364","0.0-57.0-22.0-15.0-18.0","B03POSTSH","POST","","null","","display digit","<div class=""stimulus"">0</div>","null","4,9,5,0,9,5,0,3,5","","","0",""
"html-keyboard-response","113","234153","0.0-57.0-22.0-15.0-19.0","B03POSTSH","POST","","null","","display digit","<div class=""stimulus"">3</div>","null","4,9,5,0,9,5,0,3,5","","","3",""
"html-keyboard-response","114","235943","0.0-57.0-22.0-15.0-20.0","B03POSTSH","POST","","null","","display digit","<div class=""stimulus"">5</div>","null","4,9,5,0,9,5,0,3,5","","","5",""
"survey-html-form-autofocus","115","242226","0.0-57.0-22.0-15.0-21.0","B03POSTSH","POST","","5619.100006103516","{""recall"":""0435""}","recall","","","495095035","0435","5035","","false"
"html-keyboard-response","116","243690","0.0-57.0-22.0-15.0-22.0-0.0","B03POSTSH","POST","","null","","fixation cross","<div class='stimulus'>+</div>","null","","","","",""
"html-keyboard-response","117","245480","0.0-57.0-22.0-15.0-22.0-1.0","B03POSTSH","POST","","null","","display digit","<div class=""stimulus"">5</div>","null","5,6,1,7,1,3,5,9,3,5,7","","","5",""
"html-keyboard-response","118","247269","0.0-57.0-22.0-15.0-22.0-2.0","B03POSTSH","POST","","null","","display digit","<div class=""stimulus"">6</div>","null","5,6,1,7,1,3,5,9,3,5,7","","","6",""
"html-keyboard-response","119","249057","0.0-57.0-22.0-15.0-22.0-3.0","B03POSTSH","POST","","null","","display digit","<div class=""stimulus"">1</div>","null","5,6,1,7,1,3,5,9,3,5,7","","","1",""
"html-keyboard-response","120","250846","0.0-57.0-22.0-15.0-22.0-4.0","B03POSTSH","POST","","null","","display digit","<div class=""stimulus"">7</div>","null","5,6,1,7,1,3,5,9,3,5,7","","","7",""
"html-keyboard-response","121","252634","0.0-57.0-22.0-15.0-22.0-5.0","B03POSTSH","POST","","null","","display digit","<div class=""stimulus"">1</div>","null","5,6,1,7,1,3,5,9,3,5,7","","","1",""
"html-keyboard-response","122","254423","0.0-57.0-22.0-15.0-22.0-6.0","B03POSTSH","POST","","null","","display digit","<div class=""stimulus"">3</div>","null","5,6,1,7,1,3,5,9,3,5,7","","","3",""
"html-keyboard-response","123","256211","0.0-57.0-22.0-15.0-22.0-7.0","B03POSTSH","POST","","null","","display digit","<div class=""stimulus"">5</div>","null","5,6,1,7,1,3,5,9,3,5,7","","","5",""
"html-keyboard-response","124","258001","0.0-57.0-22.0-15.0-22.0-8.0","B03POSTSH","POST","","null","","display digit","<div class=""stimulus"">9</div>","null","5,6,1,7,1,3,5,9,3,5,7","","","9",""
"html-keyboard-response","125","259789","0.0-57.0-22.0-15.0-22.0-9.0","B03POSTSH","POST","","null","","display digit","<div class=""stimulus"">3</div>","null","5,6,1,7,1,3,5,9,3,5,7","","","3",""
"html-keyboard-response","126","261578","0.0-57.0-22.0-15.0-22.0-10.0","B03POSTSH","POST","","null","","display digit","<div class=""stimulus"">5</div>","null","5,6,1,7,1,3,5,9,3,5,7","","","5",""
"html-keyboard-response","127","263367","0.0-57.0-22.0-15.0-22.0-11.0","B03POSTSH","POST","","null","","display digit","<div class=""stimulus"">7</div>","null","5,6,1,7,1,3,5,9,3,5,7","","","7",""
"survey-html-form-autofocus","128","269959","0.0-57.0-22.0-15.0-22.0-12.0","B03POSTSH","POST","","5928.5","{""recall"":""5379""}","recall","","","56171359357","5379","59357","","false"
"html-keyboard-response","129","271424","0.0-57.0-22.0-15.0-22.0-13.0","B03POSTSH","POST","","null","","fixation cross","<div class='stimulus'>+</div>","null","","","","",""
"html-keyboard-response","130","273213","0.0-57.0-22.0-15.0-22.0-14.0","B03POSTSH","POST","","null","","display digit","<div class=""stimulus"">7</div>","null","7,1,7,9,7,0,4,2,1","","","7",""
"html-keyboard-response","131","275002","0.0-57.0-22.0-15.0-22.0-15.0","B03POSTSH","POST","","null","","display digit","<div class=""stimulus"">1</div>","null","7,1,7,9,7,0,4,2,1","","","1",""
"html-keyboard-response","132","276791","0.0-57.0-22.0-15.0-22.0-16.0","B03POSTSH","POST","","null","","display digit","<div class=""stimulus"">7</div>","null","7,1,7,9,7,0,4,2,1","","","7",""
"html-keyboard-response","133","278580","0.0-57.0-22.0-15.0-22.0-17.0","B03POSTSH","POST","","null","","display digit","<div class=""stimulus"">9</div>","null","7,1,7,9,7,0,4,2,1","","","9",""
"html-keyboard-response","134","280369","0.0-57.0-22.0-15.0-22.0-18.0","B03POSTSH","POST","","null","","display digit","<div class=""stimulus"">7</div>","null","7,1,7,9,7,0,4,2,1","","","7",""
"html-keyboard-response","135","282158","0.0-57.0-22.0-15.0-22.0-19.0","B03POSTSH","POST","","null","","display digit","<div class=""stimulus"">0</div>","null","7,1,7,9,7,0,4,2,1","","","0",""
"html-keyboard-response","136","283946","0.0-57.0-22.0-15.0-22.0-20.0","B03POSTSH","POST","","null","","display digit","<div class=""stimulus"">4</div>","null","7,1,7,9,7,0,4,2,1","","","4",""
"html-keyboard-response","137","285735","0.0-57.0-22.0-15.0-22.0-21.0","B03POSTSH","POST","","null","","display digit","<div class=""stimulus"">2</div>","null","7,1,7,9,7,0,4,2,1","","","2",""
"html-keyboard-response","138","287524","0.0-57.0-22.0-15.0-22.0-22.0","B03POSTSH","POST","","null","","display digit","<div class=""stimulus"">1</div>","null","7,1,7,9,7,0,4,2,1","","","1",""
"survey-html-form-autofocus","139","296460","0.0-57.0-22.0-15.0-22.0-23.0","B03POSTSH","POST","","8272.099998474121","{""recall"":""93721""}","recall","","","717970421","93721","70421","","false"
"html-keyboard-response","140","303711","0.0-58.0","B03POSTSH","POST","","6587.900001525879","","","<p>End of the experiment.<br/>			   		You reached level 5 and your					total score is 7.</p>					<p class=""important"">PRESS SPACE TO FINISH THE EXPERIMENT.</p>","32","","","","",""
"fullscreen","141","304726","0.0-59.0","B03POSTSH","POST","true","","","","","","","","","",""
