"trial_type","trial_index","time_elapsed","internal_node_id","userID","sessionType","success","rt","responses","stage","stimulus","key_press","sequence","recall","sequence_last_digits","digit","correct"
"pavlovia","0","2","0.0-0.0","SO1postsh","POST","","","","","","","","","","",""
"fullscreen","1","4732","0.0-1.0","SO1postsh","POST","true","","","","","","","","","",""
"survey-html-form","2","15899","0.0-2.0","SO1postsh","POST","","10501.800003051758","{""userID"":""SO1postsh"",""type"":""POST""}","userID","","","","","","",""
"html-keyboard-response","3","24348","0.0-3.0","SO1postsh","POST","","7784.800003051758","","","<p>Welcome to this task.</p>			<p>You will see a set of numbers, presented one at a time.<br/>			You need to pay attention to the numbers in the list and their order.<br/>			The list will end abruptly at any time. You will be told to enter the LAST X number of digits.</p>			<p>[Press SPACE to practice]</p>","32","","","","",""
"html-keyboard-response","4","25162","0.0-4.0","SO1postsh","POST","","null","","fixation cross","<div class='stimulus'>+</div>","null","","","","",""
"html-keyboard-response","5","26951","0.0-5.0","SO1postsh","POST","","null","","practice display digit","<div class=""stimulus"">9</div>","null","9,8,3","","","",""
"html-keyboard-response","6","28740","0.0-6.0","SO1postsh","POST","","null","","practice display digit","<div class=""stimulus"">8</div>","null","9,8,3","","","",""
"html-keyboard-response","7","30530","0.0-7.0","SO1postsh","POST","","null","","practice display digit","<div class=""stimulus"">3</div>","null","9,8,3","","","",""
"survey-html-form-autofocus","8","34649","0.0-8.0","SO1postsh","POST","","3451","{""recall"":""83""}","practice recall","","","983","","83","",""
"html-keyboard-response","9","37001","0.0-9.0","SO1postsh","POST","","1688.400001525879","","","<span class='correct'>Perfect!</span><br/>Press SPACE to continue.","32","","","","",""
"html-keyboard-response","10","37815","0.0-10.0","SO1postsh","POST","","null","","fixation cross","<div class='stimulus'>+</div>","null","","","","",""
"html-keyboard-response","11","39603","0.0-11.0","SO1postsh","POST","","null","","practice display digit","<div class=""stimulus"">4</div>","null","4,8,2,1,9","","","",""
"html-keyboard-response","12","41392","0.0-12.0","SO1postsh","POST","","null","","practice display digit","<div class=""stimulus"">8</div>","null","4,8,2,1,9","","","",""
"html-keyboard-response","13","43180","0.0-13.0","SO1postsh","POST","","null","","practice display digit","<div class=""stimulus"">2</div>","null","4,8,2,1,9","","","",""
"html-keyboard-response","14","44970","0.0-14.0","SO1postsh","POST","","null","","practice display digit","<div class=""stimulus"">1</div>","null","4,8,2,1,9","","","",""
"html-keyboard-response","15","46759","0.0-15.0","SO1postsh","POST","","null","","practice display digit","<div class=""stimulus"">9</div>","null","4,8,2,1,9","","","",""
"survey-html-form-autofocus","16","51847","0.0-16.0","SO1postsh","POST","","4422.299995422363","{""recall"":""219""}","practice recall","","","48219","","219","",""
"html-keyboard-response","17","53520","0.0-17.0","SO1postsh","POST","","1010","","","<span class='correct'>Perfect!</span><br/>Press SPACE to continue.","32","","","","",""
"html-keyboard-response","18","54333","0.0-18.0","SO1postsh","POST","","null","","fixation cross","<div class='stimulus'>+</div>","null","","","","",""
"html-keyboard-response","19","56121","0.0-19.0","SO1postsh","POST","","null","","practice display digit","<div class=""stimulus"">5</div>","null","5,7,1,9,4,2,3,6","","","",""
"html-keyboard-response","20","57909","0.0-20.0","SO1postsh","POST","","null","","practice display digit","<div class=""stimulus"">7</div>","null","5,7,1,9,4,2,3,6","","","",""
"html-keyboard-response","21","59698","0.0-21.0","SO1postsh","POST","","null","","practice display digit","<div class=""stimulus"">1</div>","null","5,7,1,9,4,2,3,6","","","",""
"html-keyboard-response","22","61486","0.0-22.0","SO1postsh","POST","","null","","practice display digit","<div class=""stimulus"">9</div>","null","5,7,1,9,4,2,3,6","","","",""
"html-keyboard-response","23","63274","0.0-23.0","SO1postsh","POST","","null","","practice display digit","<div class=""stimulus"">4</div>","null","5,7,1,9,4,2,3,6","","","",""
"html-keyboard-response","24","65063","0.0-24.0","SO1postsh","POST","","null","","practice display digit","<div class=""stimulus"">2</div>","null","5,7,1,9,4,2,3,6","","","",""
"html-keyboard-response","25","66851","0.0-25.0","SO1postsh","POST","","null","","practice display digit","<div class=""stimulus"">3</div>","null","5,7,1,9,4,2,3,6","","","",""
"html-keyboard-response","26","68639","0.0-26.0","SO1postsh","POST","","null","","practice display digit","<div class=""stimulus"">6</div>","null","5,7,1,9,4,2,3,6","","","",""
"survey-html-form-autofocus","27","78146","0.0-27.0","SO1postsh","POST","","8843.400001525879","{""recall"":""4236""}","practice recall","","","57194236","","4236","",""
"html-keyboard-response","28","79559","0.0-28.0","SO1postsh","POST","","749.7000045776367","","","<span class='correct'>Perfect!</span><br/>Press SPACE to continue.","32","","","","",""
"html-keyboard-response","29","80992","0.0-29.0","SO1postsh","POST","","1421.5","","","<p>That was the practice section.<br/>			<p>Now goes the official part of the task.<br/>			You won't be given any feedback on your performance.</p>			<p>R U ready?</p>			<p>[Press Y to begin]</p>","89","","","","",""
"html-keyboard-response","30","82456","0.0-30.0","SO1postsh","POST","","null","","fixation cross","<div class='stimulus'>+</div>","null","","","","",""
"html-keyboard-response","31","84244","0.0-31.0","SO1postsh","POST","","null","","display digit","<div class=""stimulus"">4</div>","null","4,7,2,5,0,4,1,8,6","","","4",""
"html-keyboard-response","32","86033","0.0-32.0","SO1postsh","POST","","null","","display digit","<div class=""stimulus"">7</div>","null","4,7,2,5,0,4,1,8,6","","","7",""
"html-keyboard-response","33","87822","0.0-33.0","SO1postsh","POST","","null","","display digit","<div class=""stimulus"">2</div>","null","4,7,2,5,0,4,1,8,6","","","2",""
"html-keyboard-response","34","89611","0.0-34.0","SO1postsh","POST","","null","","display digit","<div class=""stimulus"">5</div>","null","4,7,2,5,0,4,1,8,6","","","5",""
"html-keyboard-response","35","91400","0.0-35.0","SO1postsh","POST","","null","","display digit","<div class=""stimulus"">0</div>","null","4,7,2,5,0,4,1,8,6","","","0",""
"html-keyboard-response","36","93188","0.0-36.0","SO1postsh","POST","","null","","display digit","<div class=""stimulus"">4</div>","null","4,7,2,5,0,4,1,8,6","","","4",""
"html-keyboard-response","37","94977","0.0-37.0","SO1postsh","POST","","null","","display digit","<div class=""stimulus"">1</div>","null","4,7,2,5,0,4,1,8,6","","","1",""
"html-keyboard-response","38","96766","0.0-38.0","SO1postsh","POST","","null","","display digit","<div class=""stimulus"">8</div>","null","4,7,2,5,0,4,1,8,6","","","8",""
"html-keyboard-response","39","98555","0.0-39.0","SO1postsh","POST","","null","","display digit","<div class=""stimulus"">6</div>","null","4,7,2,5,0,4,1,8,6","","","6",""
"survey-html-form-autofocus","40","101330","0.0-40.0","SO1postsh","POST","","2110.800003051758","{""recall"":""6""}","recall","","","472504186","6","6","","true"
"html-keyboard-response","41","102795","0.0-41.0","SO1postsh","POST","","null","","fixation cross","<div class='stimulus'>+</div>","null","","","","",""
"html-keyboard-response","42","104582","0.0-42.0","SO1postsh","POST","","null","","display digit","<div class=""stimulus"">9</div>","null","9,2,3,8,5","","","9",""
"html-keyboard-response","43","106371","0.0-43.0","SO1postsh","POST","","null","","display digit","<div class=""stimulus"">2</div>","null","9,2,3,8,5","","","2",""
"html-keyboard-response","44","108160","0.0-44.0","SO1postsh","POST","","null","","display digit","<div class=""stimulus"">3</div>","null","9,2,3,8,5","","","3",""
"html-keyboard-response","45","109949","0.0-45.0","SO1postsh","POST","","null","","display digit","<div class=""stimulus"">8</div>","null","9,2,3,8,5","","","8",""
"html-keyboard-response","46","111738","0.0-46.0","SO1postsh","POST","","null","","display digit","<div class=""stimulus"">5</div>","null","9,2,3,8,5","","","5",""
"survey-html-form-autofocus","47","114663","0.0-47.0","SO1postsh","POST","","2260.5","{""recall"":""5""}","recall","","","92385","5","5","","true"
"html-keyboard-response","48","116127","0.0-48.0-0.0","SO1postsh","POST","","null","","fixation cross","<div class='stimulus'>+</div>","null","","","","",""
"html-keyboard-response","49","117916","0.0-48.0-1.0","SO1postsh","POST","","null","","display digit","<div class=""stimulus"">2</div>","null","2,0,4,9,1,5","","","2",""
"html-keyboard-response","50","119704","0.0-48.0-2.0","SO1postsh","POST","","null","","display digit","<div class=""stimulus"">0</div>","null","2,0,4,9,1,5","","","0",""
"html-keyboard-response","51","121492","0.0-48.0-3.0","SO1postsh","POST","","null","","display digit","<div class=""stimulus"">4</div>","null","2,0,4,9,1,5","","","4",""
"html-keyboard-response","52","123280","0.0-48.0-4.0","SO1postsh","POST","","null","","display digit","<div class=""stimulus"">9</div>","null","2,0,4,9,1,5","","","9",""
"html-keyboard-response","53","125069","0.0-48.0-5.0","SO1postsh","POST","","null","","display digit","<div class=""stimulus"">1</div>","null","2,0,4,9,1,5","","","1",""
"html-keyboard-response","54","126857","0.0-48.0-6.0","SO1postsh","POST","","null","","display digit","<div class=""stimulus"">5</div>","null","2,0,4,9,1,5","","","5",""
"survey-html-form-autofocus","55","130378","0.0-48.0-7.0","SO1postsh","POST","","2855.8999938964844","{""recall"":""15""}","recall","","","204915","15","15","","true"
"html-keyboard-response","56","131841","0.0-48.0-8.0","SO1postsh","POST","","null","","fixation cross","<div class='stimulus'>+</div>","null","","","","",""
"html-keyboard-response","57","133630","0.0-48.0-9.0","SO1postsh","POST","","null","","display digit","<div class=""stimulus"">1</div>","null","1,4,1,6,2,8,3,4,2","","","1",""
"html-keyboard-response","58","135420","0.0-48.0-10.0","SO1postsh","POST","","null","","display digit","<div class=""stimulus"">4</div>","null","1,4,1,6,2,8,3,4,2","","","4",""
"html-keyboard-response","59","137208","0.0-48.0-11.0","SO1postsh","POST","","null","","display digit","<div class=""stimulus"">1</div>","null","1,4,1,6,2,8,3,4,2","","","1",""
"html-keyboard-response","60","138996","0.0-48.0-12.0","SO1postsh","POST","","null","","display digit","<div class=""stimulus"">6</div>","null","1,4,1,6,2,8,3,4,2","","","6",""
"html-keyboard-response","61","140786","0.0-48.0-13.0","SO1postsh","POST","","null","","display digit","<div class=""stimulus"">2</div>","null","1,4,1,6,2,8,3,4,2","","","2",""
"html-keyboard-response","62","142575","0.0-48.0-14.0","SO1postsh","POST","","null","","display digit","<div class=""stimulus"">8</div>","null","1,4,1,6,2,8,3,4,2","","","8",""
"html-keyboard-response","63","144363","0.0-48.0-15.0","SO1postsh","POST","","null","","display digit","<div class=""stimulus"">3</div>","null","1,4,1,6,2,8,3,4,2","","","3",""
"html-keyboard-response","64","146152","0.0-48.0-16.0","SO1postsh","POST","","null","","display digit","<div class=""stimulus"">4</div>","null","1,4,1,6,2,8,3,4,2","","","4",""
"html-keyboard-response","65","147940","0.0-48.0-17.0","SO1postsh","POST","","null","","display digit","<div class=""stimulus"">2</div>","null","1,4,1,6,2,8,3,4,2","","","2",""
"survey-html-form-autofocus","66","150894","0.0-48.0-18.0","SO1postsh","POST","","2290.099998474121","{""recall"":""42""}","recall","","","141628342","42","42","","true"
"html-keyboard-response","67","152358","0.0-48.0-19.0-0.0","SO1postsh","POST","","null","","fixation cross","<div class='stimulus'>+</div>","null","","","","",""
"html-keyboard-response","68","154147","0.0-48.0-19.0-1.0","SO1postsh","POST","","null","","display digit","<div class=""stimulus"">2</div>","null","2,0,1,8,0,4,7,0,4,0","","","2",""
"html-keyboard-response","69","155934","0.0-48.0-19.0-2.0","SO1postsh","POST","","null","","display digit","<div class=""stimulus"">0</div>","null","2,0,1,8,0,4,7,0,4,0","","","0",""
"html-keyboard-response","70","157724","0.0-48.0-19.0-3.0","SO1postsh","POST","","null","","display digit","<div class=""stimulus"">1</div>","null","2,0,1,8,0,4,7,0,4,0","","","1",""
"html-keyboard-response","71","159513","0.0-48.0-19.0-4.0","SO1postsh","POST","","null","","display digit","<div class=""stimulus"">8</div>","null","2,0,1,8,0,4,7,0,4,0","","","8",""
"html-keyboard-response","72","161302","0.0-48.0-19.0-5.0","SO1postsh","POST","","null","","display digit","<div class=""stimulus"">0</div>","null","2,0,1,8,0,4,7,0,4,0","","","0",""
"html-keyboard-response","73","163090","0.0-48.0-19.0-6.0","SO1postsh","POST","","null","","display digit","<div class=""stimulus"">4</div>","null","2,0,1,8,0,4,7,0,4,0","","","4",""
"html-keyboard-response","74","164878","0.0-48.0-19.0-7.0","SO1postsh","POST","","null","","display digit","<div class=""stimulus"">7</div>","null","2,0,1,8,0,4,7,0,4,0","","","7",""
"html-keyboard-response","75","166666","0.0-48.0-19.0-8.0","SO1postsh","POST","","null","","display digit","<div class=""stimulus"">0</div>","null","2,0,1,8,0,4,7,0,4,0","","","0",""
"html-keyboard-response","76","168456","0.0-48.0-19.0-9.0","SO1postsh","POST","","null","","display digit","<div class=""stimulus"">4</div>","null","2,0,1,8,0,4,7,0,4,0","","","4",""
"html-keyboard-response","77","170245","0.0-48.0-19.0-10.0","SO1postsh","POST","","null","","display digit","<div class=""stimulus"">0</div>","null","2,0,1,8,0,4,7,0,4,0","","","0",""
"survey-html-form-autofocus","78","179127","0.0-48.0-19.0-11.0","SO1postsh","POST","","8217","{""recall"":""040""}","recall","","","2018047040","040","040","","true"
"html-keyboard-response","79","180590","0.0-48.0-19.0-12.0","SO1postsh","POST","","null","","fixation cross","<div class='stimulus'>+</div>","null","","","","",""
"html-keyboard-response","80","182379","0.0-48.0-19.0-13.0","SO1postsh","POST","","null","","display digit","<div class=""stimulus"">2</div>","null","2,6,3","","","2",""
"html-keyboard-response","81","184166","0.0-48.0-19.0-14.0","SO1postsh","POST","","null","","display digit","<div class=""stimulus"">6</div>","null","2,6,3","","","6",""
"html-keyboard-response","82","185955","0.0-48.0-19.0-15.0","SO1postsh","POST","","null","","display digit","<div class=""stimulus"">3</div>","null","2,6,3","","","3",""
"survey-html-form-autofocus","83","191180","0.0-48.0-19.0-16.0","SO1postsh","POST","","4560.599998474121","{""recall"":""56""}","recall","","","263","56","263","","false"
"html-keyboard-response","84","192642","0.0-48.0-19.0-17.0-0.0","SO1postsh","POST","","null","","fixation cross","<div class='stimulus'>+</div>","null","","","","",""
"html-keyboard-response","85","194431","0.0-48.0-19.0-17.0-1.0","SO1postsh","POST","","null","","display digit","<div class=""stimulus"">5</div>","null","5,2,1,6,4,6,2,7,9,8","","","5",""
"html-keyboard-response","86","196218","0.0-48.0-19.0-17.0-2.0","SO1postsh","POST","","null","","display digit","<div class=""stimulus"">2</div>","null","5,2,1,6,4,6,2,7,9,8","","","2",""
"html-keyboard-response","87","198007","0.0-48.0-19.0-17.0-3.0","SO1postsh","POST","","null","","display digit","<div class=""stimulus"">1</div>","null","5,2,1,6,4,6,2,7,9,8","","","1",""
"html-keyboard-response","88","199796","0.0-48.0-19.0-17.0-4.0","SO1postsh","POST","","null","","display digit","<div class=""stimulus"">6</div>","null","5,2,1,6,4,6,2,7,9,8","","","6",""
"html-keyboard-response","89","201585","0.0-48.0-19.0-17.0-5.0","SO1postsh","POST","","null","","display digit","<div class=""stimulus"">4</div>","null","5,2,1,6,4,6,2,7,9,8","","","4",""
"html-keyboard-response","90","203373","0.0-48.0-19.0-17.0-6.0","SO1postsh","POST","","null","","display digit","<div class=""stimulus"">6</div>","null","5,2,1,6,4,6,2,7,9,8","","","6",""
"html-keyboard-response","91","205163","0.0-48.0-19.0-17.0-7.0","SO1postsh","POST","","null","","display digit","<div class=""stimulus"">2</div>","null","5,2,1,6,4,6,2,7,9,8","","","2",""
"html-keyboard-response","92","206952","0.0-48.0-19.0-17.0-8.0","SO1postsh","POST","","null","","display digit","<div class=""stimulus"">7</div>","null","5,2,1,6,4,6,2,7,9,8","","","7",""
"html-keyboard-response","93","208740","0.0-48.0-19.0-17.0-9.0","SO1postsh","POST","","null","","display digit","<div class=""stimulus"">9</div>","null","5,2,1,6,4,6,2,7,9,8","","","9",""
"html-keyboard-response","94","210529","0.0-48.0-19.0-17.0-10.0","SO1postsh","POST","","null","","display digit","<div class=""stimulus"">8</div>","null","5,2,1,6,4,6,2,7,9,8","","","8",""
"survey-html-form-autofocus","95","214310","0.0-48.0-19.0-17.0-11.0","SO1postsh","POST","","3118","{""recall"":""2798""}","recall","","","5216462798","2798","2798","","true"
"html-keyboard-response","96","215773","0.0-48.0-19.0-17.0-12.0","SO1postsh","POST","","null","","fixation cross","<div class='stimulus'>+</div>","null","","","","",""
"html-keyboard-response","97","217561","0.0-48.0-19.0-17.0-13.0","SO1postsh","POST","","null","","display digit","<div class=""stimulus"">9</div>","null","9,3,9,6,8,1,9,3,5,4,2,3","","","9",""
"html-keyboard-response","98","219349","0.0-48.0-19.0-17.0-14.0","SO1postsh","POST","","null","","display digit","<div class=""stimulus"">3</div>","null","9,3,9,6,8,1,9,3,5,4,2,3","","","3",""
"html-keyboard-response","99","221139","0.0-48.0-19.0-17.0-15.0","SO1postsh","POST","","null","","display digit","<div class=""stimulus"">9</div>","null","9,3,9,6,8,1,9,3,5,4,2,3","","","9",""
"html-keyboard-response","100","222926","0.0-48.0-19.0-17.0-16.0","SO1postsh","POST","","null","","display digit","<div class=""stimulus"">6</div>","null","9,3,9,6,8,1,9,3,5,4,2,3","","","6",""
"html-keyboard-response","101","224715","0.0-48.0-19.0-17.0-17.0","SO1postsh","POST","","null","","display digit","<div class=""stimulus"">8</div>","null","9,3,9,6,8,1,9,3,5,4,2,3","","","8",""
"html-keyboard-response","102","226505","0.0-48.0-19.0-17.0-18.0","SO1postsh","POST","","null","","display digit","<div class=""stimulus"">1</div>","null","9,3,9,6,8,1,9,3,5,4,2,3","","","1",""
"html-keyboard-response","103","228293","0.0-48.0-19.0-17.0-19.0","SO1postsh","POST","","null","","display digit","<div class=""stimulus"">9</div>","null","9,3,9,6,8,1,9,3,5,4,2,3","","","9",""
"html-keyboard-response","104","230082","0.0-48.0-19.0-17.0-20.0","SO1postsh","POST","","null","","display digit","<div class=""stimulus"">3</div>","null","9,3,9,6,8,1,9,3,5,4,2,3","","","3",""
"html-keyboard-response","105","231870","0.0-48.0-19.0-17.0-21.0","SO1postsh","POST","","null","","display digit","<div class=""stimulus"">5</div>","null","9,3,9,6,8,1,9,3,5,4,2,3","","","5",""
"html-keyboard-response","106","233659","0.0-48.0-19.0-17.0-22.0","SO1postsh","POST","","null","","display digit","<div class=""stimulus"">4</div>","null","9,3,9,6,8,1,9,3,5,4,2,3","","","4",""
"html-keyboard-response","107","235448","0.0-48.0-19.0-17.0-23.0","SO1postsh","POST","","null","","display digit","<div class=""stimulus"">2</div>","null","9,3,9,6,8,1,9,3,5,4,2,3","","","2",""
"html-keyboard-response","108","237237","0.0-48.0-19.0-17.0-24.0","SO1postsh","POST","","null","","display digit","<div class=""stimulus"">3</div>","null","9,3,9,6,8,1,9,3,5,4,2,3","","","3",""
"survey-html-form-autofocus","109","245661","0.0-48.0-19.0-17.0-25.0","SO1postsh","POST","","7760.5","{""recall"":""5432""}","recall","","","939681935423","5432","5423","","false"
"html-keyboard-response","110","247125","0.0-48.0-19.0-17.0-26.0-0.0","SO1postsh","POST","","null","","fixation cross","<div class='stimulus'>+</div>","null","","","","",""
"html-keyboard-response","111","248914","0.0-48.0-19.0-17.0-26.0-1.0","SO1postsh","POST","","null","","display digit","<div class=""stimulus"">5</div>","null","5,6,2,9,3,2","","","5",""
"html-keyboard-response","112","250702","0.0-48.0-19.0-17.0-26.0-2.0","SO1postsh","POST","","null","","display digit","<div class=""stimulus"">6</div>","null","5,6,2,9,3,2","","","6",""
"html-keyboard-response","113","252491","0.0-48.0-19.0-17.0-26.0-3.0","SO1postsh","POST","","null","","display digit","<div class=""stimulus"">2</div>","null","5,6,2,9,3,2","","","2",""
"html-keyboard-response","114","254279","0.0-48.0-19.0-17.0-26.0-4.0","SO1postsh","POST","","null","","display digit","<div class=""stimulus"">9</div>","null","5,6,2,9,3,2","","","9",""
"html-keyboard-response","115","256068","0.0-48.0-19.0-17.0-26.0-5.0","SO1postsh","POST","","null","","display digit","<div class=""stimulus"">3</div>","null","5,6,2,9,3,2","","","3",""
"html-keyboard-response","116","257857","0.0-48.0-19.0-17.0-26.0-6.0","SO1postsh","POST","","null","","display digit","<div class=""stimulus"">2</div>","null","5,6,2,9,3,2","","","2",""
"survey-html-form-autofocus","117","267427","0.0-48.0-19.0-17.0-26.0-7.0","SO1postsh","POST","","8906.300003051758","{""recall"":""5262""}","recall","","","562932","5262","62932","","false"
"html-keyboard-response","118","268891","0.0-48.0-19.0-17.0-26.0-8.0","SO1postsh","POST","","null","","fixation cross","<div class='stimulus'>+</div>","null","","","","",""
"html-keyboard-response","119","270680","0.0-48.0-19.0-17.0-26.0-9.0","SO1postsh","POST","","null","","display digit","<div class=""stimulus"">2</div>","null","2,4,9,8,6,0,9,8","","","2",""
"html-keyboard-response","120","272469","0.0-48.0-19.0-17.0-26.0-10.0","SO1postsh","POST","","null","","display digit","<div class=""stimulus"">4</div>","null","2,4,9,8,6,0,9,8","","","4",""
"html-keyboard-response","121","274258","0.0-48.0-19.0-17.0-26.0-11.0","SO1postsh","POST","","null","","display digit","<div class=""stimulus"">9</div>","null","2,4,9,8,6,0,9,8","","","9",""
"html-keyboard-response","122","276047","0.0-48.0-19.0-17.0-26.0-12.0","SO1postsh","POST","","null","","display digit","<div class=""stimulus"">8</div>","null","2,4,9,8,6,0,9,8","","","8",""
"html-keyboard-response","123","277836","0.0-48.0-19.0-17.0-26.0-13.0","SO1postsh","POST","","null","","display digit","<div class=""stimulus"">6</div>","null","2,4,9,8,6,0,9,8","","","6",""
"html-keyboard-response","124","279625","0.0-48.0-19.0-17.0-26.0-14.0","SO1postsh","POST","","null","","display digit","<div class=""stimulus"">0</div>","null","2,4,9,8,6,0,9,8","","","0",""
"html-keyboard-response","125","281413","0.0-48.0-19.0-17.0-26.0-15.0","SO1postsh","POST","","null","","display digit","<div class=""stimulus"">9</div>","null","2,4,9,8,6,0,9,8","","","9",""
"html-keyboard-response","126","283202","0.0-48.0-19.0-17.0-26.0-16.0","SO1postsh","POST","","null","","display digit","<div class=""stimulus"">8</div>","null","2,4,9,8,6,0,9,8","","","8",""
"survey-html-form-autofocus","127","288960","0.0-48.0-19.0-17.0-26.0-17.0","SO1postsh","POST","","5093.900001525879","{""recall"":""21098""}","recall","","","24986098","21098","86098","","false"
"html-keyboard-response","128","290755","0.0-49.0","SO1postsh","POST","","1131.2999954223633","","","<p>End of the experiment.<br/>			   		You reached level 5 and your					total score is 6.</p>					<p class=""important"">PRESS SPACE TO FINISH THE EXPERIMENT.</p>","32","","","","",""
"fullscreen","129","291768","0.0-50.0","SO1postsh","POST","true","","","","","","","","","",""
