"trial_type","trial_index","time_elapsed","internal_node_id","userID","sessionType","success","rt","responses","stage","stimulus","key_press","sequence","recall","sequence_last_digits","digit","correct"
"pavlovia","0","3","0.0-0.0","B07PRESH","PRE","","","","","","","","","","",""
"fullscreen","1","2770","0.0-1.0","B07PRESH","PRE","true","","","","","","","","","",""
"survey-html-form","2","11388","0.0-2.0","B07PRESH","PRE","","7952.799995422363","{""userID"":""B07PRESH"",""type"":""PRE""}","userID","","","","","","",""
"html-keyboard-response","3","32218","0.0-3.0","B07PRESH","PRE","","20166.699996948242","","","<p>Welcome to this task.</p>			<p>You will see a set of numbers, presented one at a time.<br/>			You need to pay attention to the numbers in the list and their order.<br/>			The list will end abruptly at any time. You will be told to enter the LAST X number of digits.</p>			<p>[Press SPACE to practice]</p>","32","","","","",""
"html-keyboard-response","4","33033","0.0-4.0","B07PRESH","PRE","","null","","fixation cross","<div class='stimulus'>+</div>","null","","","","",""
"html-keyboard-response","5","34822","0.0-5.0","B07PRESH","PRE","","null","","practice display digit","<div class=""stimulus"">9</div>","null","9,8,3","","","",""
"html-keyboard-response","6","36612","0.0-6.0","B07PRESH","PRE","","null","","practice display digit","<div class=""stimulus"">8</div>","null","9,8,3","","","",""
"html-keyboard-response","7","38402","0.0-7.0","B07PRESH","PRE","","null","","practice display digit","<div class=""stimulus"">3</div>","null","9,8,3","","","",""
"survey-html-form-autofocus","8","45035","0.0-8.0","B07PRESH","PRE","","5965.299995422363","{""recall"":""83""}","practice recall","","","983","","83","",""
"html-keyboard-response","9","46904","0.0-9.0","B07PRESH","PRE","","1206.1999969482422","","","<span class='correct'>Perfect!</span><br/>Press SPACE to continue.","32","","","","",""
"html-keyboard-response","10","47718","0.0-10.0","B07PRESH","PRE","","null","","fixation cross","<div class='stimulus'>+</div>","null","","","","",""
"html-keyboard-response","11","49507","0.0-11.0","B07PRESH","PRE","","null","","practice display digit","<div class=""stimulus"">4</div>","null","4,8,2,1,9","","","",""
"html-keyboard-response","12","51294","0.0-12.0","B07PRESH","PRE","","null","","practice display digit","<div class=""stimulus"">8</div>","null","4,8,2,1,9","","","",""
"html-keyboard-response","13","53083","0.0-13.0","B07PRESH","PRE","","null","","practice display digit","<div class=""stimulus"">2</div>","null","4,8,2,1,9","","","",""
"html-keyboard-response","14","54873","0.0-14.0","B07PRESH","PRE","","null","","practice display digit","<div class=""stimulus"">1</div>","null","4,8,2,1,9","","","",""
"html-keyboard-response","15","56661","0.0-15.0","B07PRESH","PRE","","null","","practice display digit","<div class=""stimulus"">9</div>","null","4,8,2,1,9","","","",""
"survey-html-form-autofocus","16","63051","0.0-16.0","B07PRESH","PRE","","5725.299995422363","{""recall"":""219""}","practice recall","","","48219","","219","",""
"html-keyboard-response","17","64816","0.0-17.0","B07PRESH","PRE","","1103.1000061035156","","","<span class='correct'>Perfect!</span><br/>Press SPACE to continue.","32","","","","",""
"html-keyboard-response","18","65630","0.0-18.0","B07PRESH","PRE","","null","","fixation cross","<div class='stimulus'>+</div>","null","","","","",""
"html-keyboard-response","19","67419","0.0-19.0","B07PRESH","PRE","","null","","practice display digit","<div class=""stimulus"">5</div>","null","5,7,1,9,4,2,3,6","","","",""
"html-keyboard-response","20","69208","0.0-20.0","B07PRESH","PRE","","null","","practice display digit","<div class=""stimulus"">7</div>","null","5,7,1,9,4,2,3,6","","","",""
"html-keyboard-response","21","70996","0.0-21.0","B07PRESH","PRE","","null","","practice display digit","<div class=""stimulus"">1</div>","null","5,7,1,9,4,2,3,6","","","",""
"html-keyboard-response","22","72786","0.0-22.0","B07PRESH","PRE","","null","","practice display digit","<div class=""stimulus"">9</div>","null","5,7,1,9,4,2,3,6","","","",""
"html-keyboard-response","23","74573","0.0-23.0","B07PRESH","PRE","","null","","practice display digit","<div class=""stimulus"">4</div>","null","5,7,1,9,4,2,3,6","","","",""
"html-keyboard-response","24","76361","0.0-24.0","B07PRESH","PRE","","null","","practice display digit","<div class=""stimulus"">2</div>","null","5,7,1,9,4,2,3,6","","","",""
"html-keyboard-response","25","78151","0.0-25.0","B07PRESH","PRE","","null","","practice display digit","<div class=""stimulus"">3</div>","null","5,7,1,9,4,2,3,6","","","",""
"html-keyboard-response","26","79939","0.0-26.0","B07PRESH","PRE","","null","","practice display digit","<div class=""stimulus"">6</div>","null","5,7,1,9,4,2,3,6","","","",""
"survey-html-form-autofocus","27","91950","0.0-27.0","B07PRESH","PRE","","11347.099998474121","{""recall"":""9236""}","practice recall","","","57194236","","4236","",""
"html-keyboard-response","28","101940","0.0-28.0","B07PRESH","PRE","","9327.5","","","<p>The sequence was 57194236					and you input 9236.<br/>					<span class='incorrect'>You should have written 4236.</span></p>						<p>Press SPACE to continue</p>","32","","","","",""
"html-keyboard-response","29","110137","0.0-29.0","B07PRESH","PRE","","8185.400001525879","","","<p>That was the practice section.<br/>			<p>Now goes the official part of the task.<br/>			You won't be given any feedback on your performance.</p>			<p>R U ready?</p>			<p>[Press Y to begin]</p>","89","","","","",""
"html-keyboard-response","30","111601","0.0-30.0","B07PRESH","PRE","","null","","fixation cross","<div class='stimulus'>+</div>","null","","","","",""
"html-keyboard-response","31","113390","0.0-31.0","B07PRESH","PRE","","null","","display digit","<div class=""stimulus"">5</div>","null","5,4,6","","","5",""
"html-keyboard-response","32","115180","0.0-32.0","B07PRESH","PRE","","null","","display digit","<div class=""stimulus"">4</div>","null","5,4,6","","","4",""
"html-keyboard-response","33","116968","0.0-33.0","B07PRESH","PRE","","null","","display digit","<div class=""stimulus"">6</div>","null","5,4,6","","","6",""
"survey-html-form-autofocus","34","120867","0.0-34.0","B07PRESH","PRE","","3234.099998474121","{""recall"":""6""}","recall","","","546","6","6","","true"
"html-keyboard-response","35","122332","0.0-35.0","B07PRESH","PRE","","null","","fixation cross","<div class='stimulus'>+</div>","null","","","","",""
"html-keyboard-response","36","124120","0.0-36.0","B07PRESH","PRE","","null","","display digit","<div class=""stimulus"">7</div>","null","7,2,3,7,9,0,7,0","","","7",""
"html-keyboard-response","37","125909","0.0-37.0","B07PRESH","PRE","","null","","display digit","<div class=""stimulus"">2</div>","null","7,2,3,7,9,0,7,0","","","2",""
"html-keyboard-response","38","127698","0.0-38.0","B07PRESH","PRE","","null","","display digit","<div class=""stimulus"">3</div>","null","7,2,3,7,9,0,7,0","","","3",""
"html-keyboard-response","39","129488","0.0-39.0","B07PRESH","PRE","","null","","display digit","<div class=""stimulus"">7</div>","null","7,2,3,7,9,0,7,0","","","7",""
"html-keyboard-response","40","131276","0.0-40.0","B07PRESH","PRE","","null","","display digit","<div class=""stimulus"">9</div>","null","7,2,3,7,9,0,7,0","","","9",""
"html-keyboard-response","41","133065","0.0-41.0","B07PRESH","PRE","","null","","display digit","<div class=""stimulus"">0</div>","null","7,2,3,7,9,0,7,0","","","0",""
"html-keyboard-response","42","134854","0.0-42.0","B07PRESH","PRE","","null","","display digit","<div class=""stimulus"">7</div>","null","7,2,3,7,9,0,7,0","","","7",""
"html-keyboard-response","43","136642","0.0-43.0","B07PRESH","PRE","","null","","display digit","<div class=""stimulus"">0</div>","null","7,2,3,7,9,0,7,0","","","0",""
"survey-html-form-autofocus","44","140217","0.0-44.0","B07PRESH","PRE","","2910.099998474121","{""recall"":""0""}","recall","","","72379070","0","0","","true"
"html-keyboard-response","45","141680","0.0-45.0-0.0","B07PRESH","PRE","","null","","fixation cross","<div class='stimulus'>+</div>","null","","","","",""
"html-keyboard-response","46","143469","0.0-45.0-1.0","B07PRESH","PRE","","null","","display digit","<div class=""stimulus"">0</div>","null","0,5,3,4,3,1,5,3,5,8,7,9,6","","","0",""
"html-keyboard-response","47","145258","0.0-45.0-2.0","B07PRESH","PRE","","null","","display digit","<div class=""stimulus"">5</div>","null","0,5,3,4,3,1,5,3,5,8,7,9,6","","","5",""
"html-keyboard-response","48","147046","0.0-45.0-3.0","B07PRESH","PRE","","null","","display digit","<div class=""stimulus"">3</div>","null","0,5,3,4,3,1,5,3,5,8,7,9,6","","","3",""
"html-keyboard-response","49","148835","0.0-45.0-4.0","B07PRESH","PRE","","null","","display digit","<div class=""stimulus"">4</div>","null","0,5,3,4,3,1,5,3,5,8,7,9,6","","","4",""
"html-keyboard-response","50","150623","0.0-45.0-5.0","B07PRESH","PRE","","null","","display digit","<div class=""stimulus"">3</div>","null","0,5,3,4,3,1,5,3,5,8,7,9,6","","","3",""
"html-keyboard-response","51","152411","0.0-45.0-6.0","B07PRESH","PRE","","null","","display digit","<div class=""stimulus"">1</div>","null","0,5,3,4,3,1,5,3,5,8,7,9,6","","","1",""
"html-keyboard-response","52","154200","0.0-45.0-7.0","B07PRESH","PRE","","null","","display digit","<div class=""stimulus"">5</div>","null","0,5,3,4,3,1,5,3,5,8,7,9,6","","","5",""
"html-keyboard-response","53","155989","0.0-45.0-8.0","B07PRESH","PRE","","null","","display digit","<div class=""stimulus"">3</div>","null","0,5,3,4,3,1,5,3,5,8,7,9,6","","","3",""
"html-keyboard-response","54","157778","0.0-45.0-9.0","B07PRESH","PRE","","null","","display digit","<div class=""stimulus"">5</div>","null","0,5,3,4,3,1,5,3,5,8,7,9,6","","","5",""
"html-keyboard-response","55","159567","0.0-45.0-10.0","B07PRESH","PRE","","null","","display digit","<div class=""stimulus"">8</div>","null","0,5,3,4,3,1,5,3,5,8,7,9,6","","","8",""
"html-keyboard-response","56","161357","0.0-45.0-11.0","B07PRESH","PRE","","null","","display digit","<div class=""stimulus"">7</div>","null","0,5,3,4,3,1,5,3,5,8,7,9,6","","","7",""
"html-keyboard-response","57","163147","0.0-45.0-12.0","B07PRESH","PRE","","null","","display digit","<div class=""stimulus"">9</div>","null","0,5,3,4,3,1,5,3,5,8,7,9,6","","","9",""
"html-keyboard-response","58","164935","0.0-45.0-13.0","B07PRESH","PRE","","null","","display digit","<div class=""stimulus"">6</div>","null","0,5,3,4,3,1,5,3,5,8,7,9,6","","","6",""
"survey-html-form-autofocus","59","170799","0.0-45.0-14.0","B07PRESH","PRE","","5199.699996948242","{""recall"":""96""}","recall","","","0534315358796","96","96","","true"
"html-keyboard-response","60","172263","0.0-45.0-15.0","B07PRESH","PRE","","null","","fixation cross","<div class='stimulus'>+</div>","null","","","","",""
"html-keyboard-response","61","174052","0.0-45.0-16.0","B07PRESH","PRE","","null","","display digit","<div class=""stimulus"">1</div>","null","1,8,7,3","","","1",""
"html-keyboard-response","62","175840","0.0-45.0-17.0","B07PRESH","PRE","","null","","display digit","<div class=""stimulus"">8</div>","null","1,8,7,3","","","8",""
"html-keyboard-response","63","177629","0.0-45.0-18.0","B07PRESH","PRE","","null","","display digit","<div class=""stimulus"">7</div>","null","1,8,7,3","","","7",""
"html-keyboard-response","64","179418","0.0-45.0-19.0","B07PRESH","PRE","","null","","display digit","<div class=""stimulus"">3</div>","null","1,8,7,3","","","3",""
"survey-html-form-autofocus","65","185600","0.0-45.0-20.0","B07PRESH","PRE","","5517.300003051758","{""recall"":""73""}","recall","","","1873","73","73","","true"
"html-keyboard-response","66","187063","0.0-45.0-21.0-0.0","B07PRESH","PRE","","null","","fixation cross","<div class='stimulus'>+</div>","null","","","","",""
"html-keyboard-response","67","188852","0.0-45.0-21.0-1.0","B07PRESH","PRE","","null","","display digit","<div class=""stimulus"">0</div>","null","0,7,9","","","0",""
"html-keyboard-response","68","190641","0.0-45.0-21.0-2.0","B07PRESH","PRE","","null","","display digit","<div class=""stimulus"">7</div>","null","0,7,9","","","7",""
"html-keyboard-response","69","192430","0.0-45.0-21.0-3.0","B07PRESH","PRE","","null","","display digit","<div class=""stimulus"">9</div>","null","0,7,9","","","9",""
"survey-html-form-autofocus","70","197383","0.0-45.0-21.0-4.0","B07PRESH","PRE","","4288.600006103516","{""recall"":""079""}","recall","","","079","079","079","","true"
"html-keyboard-response","71","198848","0.0-45.0-21.0-5.0","B07PRESH","PRE","","null","","fixation cross","<div class='stimulus'>+</div>","null","","","","",""
"html-keyboard-response","72","200636","0.0-45.0-21.0-6.0","B07PRESH","PRE","","null","","display digit","<div class=""stimulus"">1</div>","null","1,2,0,7,4,9,5,1,7,2","","","1",""
"html-keyboard-response","73","202426","0.0-45.0-21.0-7.0","B07PRESH","PRE","","null","","display digit","<div class=""stimulus"">2</div>","null","1,2,0,7,4,9,5,1,7,2","","","2",""
"html-keyboard-response","74","204215","0.0-45.0-21.0-8.0","B07PRESH","PRE","","null","","display digit","<div class=""stimulus"">0</div>","null","1,2,0,7,4,9,5,1,7,2","","","0",""
"html-keyboard-response","75","206004","0.0-45.0-21.0-9.0","B07PRESH","PRE","","null","","display digit","<div class=""stimulus"">7</div>","null","1,2,0,7,4,9,5,1,7,2","","","7",""
"html-keyboard-response","76","207793","0.0-45.0-21.0-10.0","B07PRESH","PRE","","null","","display digit","<div class=""stimulus"">4</div>","null","1,2,0,7,4,9,5,1,7,2","","","4",""
"html-keyboard-response","77","209582","0.0-45.0-21.0-11.0","B07PRESH","PRE","","null","","display digit","<div class=""stimulus"">9</div>","null","1,2,0,7,4,9,5,1,7,2","","","9",""
"html-keyboard-response","78","211370","0.0-45.0-21.0-12.0","B07PRESH","PRE","","null","","display digit","<div class=""stimulus"">5</div>","null","1,2,0,7,4,9,5,1,7,2","","","5",""
"html-keyboard-response","79","213160","0.0-45.0-21.0-13.0","B07PRESH","PRE","","null","","display digit","<div class=""stimulus"">1</div>","null","1,2,0,7,4,9,5,1,7,2","","","1",""
"html-keyboard-response","80","214950","0.0-45.0-21.0-14.0","B07PRESH","PRE","","null","","display digit","<div class=""stimulus"">7</div>","null","1,2,0,7,4,9,5,1,7,2","","","7",""
"html-keyboard-response","81","216739","0.0-45.0-21.0-15.0","B07PRESH","PRE","","null","","display digit","<div class=""stimulus"">2</div>","null","1,2,0,7,4,9,5,1,7,2","","","2",""
"survey-html-form-autofocus","82","221683","0.0-45.0-21.0-16.0","B07PRESH","PRE","","4280","{""recall"":""172""}","recall","","","1207495172","172","172","","true"
"html-keyboard-response","83","223147","0.0-45.0-21.0-17.0-0.0","B07PRESH","PRE","","null","","fixation cross","<div class='stimulus'>+</div>","null","","","","",""
"html-keyboard-response","84","224935","0.0-45.0-21.0-17.0-1.0","B07PRESH","PRE","","null","","display digit","<div class=""stimulus"">3</div>","null","3,7,0,9","","","3",""
"html-keyboard-response","85","226725","0.0-45.0-21.0-17.0-2.0","B07PRESH","PRE","","null","","display digit","<div class=""stimulus"">7</div>","null","3,7,0,9","","","7",""
"html-keyboard-response","86","228514","0.0-45.0-21.0-17.0-3.0","B07PRESH","PRE","","null","","display digit","<div class=""stimulus"">0</div>","null","3,7,0,9","","","0",""
"html-keyboard-response","87","230303","0.0-45.0-21.0-17.0-4.0","B07PRESH","PRE","","null","","display digit","<div class=""stimulus"">9</div>","null","3,7,0,9","","","9",""
"survey-html-form-autofocus","88","237633","0.0-45.0-21.0-17.0-5.0","B07PRESH","PRE","","6665.199996948242","{""recall"":""3709""}","recall","","","3709","3709","3709","","true"
"html-keyboard-response","89","239097","0.0-45.0-21.0-17.0-6.0","B07PRESH","PRE","","null","","fixation cross","<div class='stimulus'>+</div>","null","","","","",""
"html-keyboard-response","90","240885","0.0-45.0-21.0-17.0-7.0","B07PRESH","PRE","","null","","display digit","<div class=""stimulus"">7</div>","null","7,6,8,0","","","7",""
"html-keyboard-response","91","242675","0.0-45.0-21.0-17.0-8.0","B07PRESH","PRE","","null","","display digit","<div class=""stimulus"">6</div>","null","7,6,8,0","","","6",""
"html-keyboard-response","92","244463","0.0-45.0-21.0-17.0-9.0","B07PRESH","PRE","","null","","display digit","<div class=""stimulus"">8</div>","null","7,6,8,0","","","8",""
"html-keyboard-response","93","246253","0.0-45.0-21.0-17.0-10.0","B07PRESH","PRE","","null","","display digit","<div class=""stimulus"">0</div>","null","7,6,8,0","","","0",""
"survey-html-form-autofocus","94","252115","0.0-45.0-21.0-17.0-11.0","B07PRESH","PRE","","5197.599998474121","{""recall"":""7680""}","recall","","","7680","7680","7680","","true"
"html-keyboard-response","95","253580","0.0-45.0-21.0-17.0-12.0-0.0","B07PRESH","PRE","","null","","fixation cross","<div class='stimulus'>+</div>","null","","","","",""
"html-keyboard-response","96","255369","0.0-45.0-21.0-17.0-12.0-1.0","B07PRESH","PRE","","null","","display digit","<div class=""stimulus"">2</div>","null","2,4,1,3,6,5,9,4","","","2",""
"html-keyboard-response","97","257159","0.0-45.0-21.0-17.0-12.0-2.0","B07PRESH","PRE","","null","","display digit","<div class=""stimulus"">4</div>","null","2,4,1,3,6,5,9,4","","","4",""
"html-keyboard-response","98","258948","0.0-45.0-21.0-17.0-12.0-3.0","B07PRESH","PRE","","null","","display digit","<div class=""stimulus"">1</div>","null","2,4,1,3,6,5,9,4","","","1",""
"html-keyboard-response","99","260735","0.0-45.0-21.0-17.0-12.0-4.0","B07PRESH","PRE","","null","","display digit","<div class=""stimulus"">3</div>","null","2,4,1,3,6,5,9,4","","","3",""
"html-keyboard-response","100","262524","0.0-45.0-21.0-17.0-12.0-5.0","B07PRESH","PRE","","null","","display digit","<div class=""stimulus"">6</div>","null","2,4,1,3,6,5,9,4","","","6",""
"html-keyboard-response","101","264313","0.0-45.0-21.0-17.0-12.0-6.0","B07PRESH","PRE","","null","","display digit","<div class=""stimulus"">5</div>","null","2,4,1,3,6,5,9,4","","","5",""
"html-keyboard-response","102","266101","0.0-45.0-21.0-17.0-12.0-7.0","B07PRESH","PRE","","null","","display digit","<div class=""stimulus"">9</div>","null","2,4,1,3,6,5,9,4","","","9",""
"html-keyboard-response","103","267891","0.0-45.0-21.0-17.0-12.0-8.0","B07PRESH","PRE","","null","","display digit","<div class=""stimulus"">4</div>","null","2,4,1,3,6,5,9,4","","","4",""
"survey-html-form-autofocus","104","273933","0.0-45.0-21.0-17.0-12.0-9.0","B07PRESH","PRE","","5376.800003051758","{""recall"":""36594""}","recall","","","24136594","36594","36594","","true"
"html-keyboard-response","105","275396","0.0-45.0-21.0-17.0-12.0-10.0","B07PRESH","PRE","","null","","fixation cross","<div class='stimulus'>+</div>","null","","","","",""
"html-keyboard-response","106","277186","0.0-45.0-21.0-17.0-12.0-11.0","B07PRESH","PRE","","null","","display digit","<div class=""stimulus"">2</div>","null","2,5,4,3,0,3,2,1","","","2",""
"html-keyboard-response","107","278975","0.0-45.0-21.0-17.0-12.0-12.0","B07PRESH","PRE","","null","","display digit","<div class=""stimulus"">5</div>","null","2,5,4,3,0,3,2,1","","","5",""
"html-keyboard-response","108","280764","0.0-45.0-21.0-17.0-12.0-13.0","B07PRESH","PRE","","null","","display digit","<div class=""stimulus"">4</div>","null","2,5,4,3,0,3,2,1","","","4",""
"html-keyboard-response","109","282552","0.0-45.0-21.0-17.0-12.0-14.0","B07PRESH","PRE","","null","","display digit","<div class=""stimulus"">3</div>","null","2,5,4,3,0,3,2,1","","","3",""
"html-keyboard-response","110","284340","0.0-45.0-21.0-17.0-12.0-15.0","B07PRESH","PRE","","null","","display digit","<div class=""stimulus"">0</div>","null","2,5,4,3,0,3,2,1","","","0",""
"html-keyboard-response","111","286130","0.0-45.0-21.0-17.0-12.0-16.0","B07PRESH","PRE","","null","","display digit","<div class=""stimulus"">3</div>","null","2,5,4,3,0,3,2,1","","","3",""
"html-keyboard-response","112","287919","0.0-45.0-21.0-17.0-12.0-17.0","B07PRESH","PRE","","null","","display digit","<div class=""stimulus"">2</div>","null","2,5,4,3,0,3,2,1","","","2",""
"html-keyboard-response","113","289708","0.0-45.0-21.0-17.0-12.0-18.0","B07PRESH","PRE","","null","","display digit","<div class=""stimulus"">1</div>","null","2,5,4,3,0,3,2,1","","","1",""
"survey-html-form-autofocus","114","294899","0.0-45.0-21.0-17.0-12.0-19.0","B07PRESH","PRE","","4527.599998474121","{""recall"":""30321""}","recall","","","25430321","30321","30321","","true"
"html-keyboard-response","115","296364","0.0-45.0-21.0-17.0-12.0-20.0-0.0","B07PRESH","PRE","","null","","fixation cross","<div class='stimulus'>+</div>","null","","","","",""
"html-keyboard-response","116","298153","0.0-45.0-21.0-17.0-12.0-20.0-1.0","B07PRESH","PRE","","null","","display digit","<div class=""stimulus"">5</div>","null","5,9,8,5,1,9,6,1,4,8,0","","","5",""
"html-keyboard-response","117","299941","0.0-45.0-21.0-17.0-12.0-20.0-2.0","B07PRESH","PRE","","null","","display digit","<div class=""stimulus"">9</div>","null","5,9,8,5,1,9,6,1,4,8,0","","","9",""
"html-keyboard-response","118","301730","0.0-45.0-21.0-17.0-12.0-20.0-3.0","B07PRESH","PRE","","null","","display digit","<div class=""stimulus"">8</div>","null","5,9,8,5,1,9,6,1,4,8,0","","","8",""
"html-keyboard-response","119","303519","0.0-45.0-21.0-17.0-12.0-20.0-4.0","B07PRESH","PRE","","null","","display digit","<div class=""stimulus"">5</div>","null","5,9,8,5,1,9,6,1,4,8,0","","","5",""
"html-keyboard-response","120","305309","0.0-45.0-21.0-17.0-12.0-20.0-5.0","B07PRESH","PRE","","null","","display digit","<div class=""stimulus"">1</div>","null","5,9,8,5,1,9,6,1,4,8,0","","","1",""
"html-keyboard-response","121","307098","0.0-45.0-21.0-17.0-12.0-20.0-6.0","B07PRESH","PRE","","null","","display digit","<div class=""stimulus"">9</div>","null","5,9,8,5,1,9,6,1,4,8,0","","","9",""
"html-keyboard-response","122","308887","0.0-45.0-21.0-17.0-12.0-20.0-7.0","B07PRESH","PRE","","null","","display digit","<div class=""stimulus"">6</div>","null","5,9,8,5,1,9,6,1,4,8,0","","","6",""
"html-keyboard-response","123","310677","0.0-45.0-21.0-17.0-12.0-20.0-8.0","B07PRESH","PRE","","null","","display digit","<div class=""stimulus"">1</div>","null","5,9,8,5,1,9,6,1,4,8,0","","","1",""
"html-keyboard-response","124","312466","0.0-45.0-21.0-17.0-12.0-20.0-9.0","B07PRESH","PRE","","null","","display digit","<div class=""stimulus"">4</div>","null","5,9,8,5,1,9,6,1,4,8,0","","","4",""
"html-keyboard-response","125","314255","0.0-45.0-21.0-17.0-12.0-20.0-10.0","B07PRESH","PRE","","null","","display digit","<div class=""stimulus"">8</div>","null","5,9,8,5,1,9,6,1,4,8,0","","","8",""
"html-keyboard-response","126","316044","0.0-45.0-21.0-17.0-12.0-20.0-11.0","B07PRESH","PRE","","null","","display digit","<div class=""stimulus"">0</div>","null","5,9,8,5,1,9,6,1,4,8,0","","","0",""
"survey-html-form-autofocus","127","330265","0.0-45.0-21.0-17.0-12.0-20.0-12.0","B07PRESH","PRE","","13557.900001525879","{""recall"":""961480""}","recall","","","59851961480","961480","961480","","true"
"html-keyboard-response","128","331728","0.0-45.0-21.0-17.0-12.0-20.0-13.0","B07PRESH","PRE","","null","","fixation cross","<div class='stimulus'>+</div>","null","","","","",""
"html-keyboard-response","129","333517","0.0-45.0-21.0-17.0-12.0-20.0-14.0","B07PRESH","PRE","","null","","display digit","<div class=""stimulus"">1</div>","null","1,9,3,9,6,7","","","1",""
"html-keyboard-response","130","335306","0.0-45.0-21.0-17.0-12.0-20.0-15.0","B07PRESH","PRE","","null","","display digit","<div class=""stimulus"">9</div>","null","1,9,3,9,6,7","","","9",""
"html-keyboard-response","131","337094","0.0-45.0-21.0-17.0-12.0-20.0-16.0","B07PRESH","PRE","","null","","display digit","<div class=""stimulus"">3</div>","null","1,9,3,9,6,7","","","3",""
"html-keyboard-response","132","338884","0.0-45.0-21.0-17.0-12.0-20.0-17.0","B07PRESH","PRE","","null","","display digit","<div class=""stimulus"">9</div>","null","1,9,3,9,6,7","","","9",""
"html-keyboard-response","133","340673","0.0-45.0-21.0-17.0-12.0-20.0-18.0","B07PRESH","PRE","","null","","display digit","<div class=""stimulus"">6</div>","null","1,9,3,9,6,7","","","6",""
"html-keyboard-response","134","342461","0.0-45.0-21.0-17.0-12.0-20.0-19.0","B07PRESH","PRE","","null","","display digit","<div class=""stimulus"">7</div>","null","1,9,3,9,6,7","","","7",""
"survey-html-form-autofocus","135","349681","0.0-45.0-21.0-17.0-12.0-20.0-20.0","B07PRESH","PRE","","6555.199996948242","{""recall"":""193967""}","recall","","","193967","193967","193967","","true"
"html-keyboard-response","136","351146","0.0-45.0-21.0-17.0-12.0-20.0-21.0-0.0","B07PRESH","PRE","","null","","fixation cross","<div class='stimulus'>+</div>","null","","","","",""
"html-keyboard-response","137","352935","0.0-45.0-21.0-17.0-12.0-20.0-21.0-1.0","B07PRESH","PRE","","null","","display digit","<div class=""stimulus"">1</div>","null","1,0,3,6,9,7,2","","","1",""
"html-keyboard-response","138","354724","0.0-45.0-21.0-17.0-12.0-20.0-21.0-2.0","B07PRESH","PRE","","null","","display digit","<div class=""stimulus"">0</div>","null","1,0,3,6,9,7,2","","","0",""
"html-keyboard-response","139","356513","0.0-45.0-21.0-17.0-12.0-20.0-21.0-3.0","B07PRESH","PRE","","null","","display digit","<div class=""stimulus"">3</div>","null","1,0,3,6,9,7,2","","","3",""
"html-keyboard-response","140","358302","0.0-45.0-21.0-17.0-12.0-20.0-21.0-4.0","B07PRESH","PRE","","null","","display digit","<div class=""stimulus"">6</div>","null","1,0,3,6,9,7,2","","","6",""
"html-keyboard-response","141","360090","0.0-45.0-21.0-17.0-12.0-20.0-21.0-5.0","B07PRESH","PRE","","null","","display digit","<div class=""stimulus"">9</div>","null","1,0,3,6,9,7,2","","","9",""
"html-keyboard-response","142","361878","0.0-45.0-21.0-17.0-12.0-20.0-21.0-6.0","B07PRESH","PRE","","null","","display digit","<div class=""stimulus"">7</div>","null","1,0,3,6,9,7,2","","","7",""
"html-keyboard-response","143","363667","0.0-45.0-21.0-17.0-12.0-20.0-21.0-7.0","B07PRESH","PRE","","null","","display digit","<div class=""stimulus"">2</div>","null","1,0,3,6,9,7,2","","","2",""
"survey-html-form-autofocus","144","373182","0.0-45.0-21.0-17.0-12.0-20.0-21.0-8.0","B07PRESH","PRE","","8850.600006103516","{""recall"":""1036972""}","recall","","","1036972","1036972","1036972","","true"
"html-keyboard-response","145","374647","0.0-45.0-21.0-17.0-12.0-20.0-21.0-9.0","B07PRESH","PRE","","null","","fixation cross","<div class='stimulus'>+</div>","null","","","","",""
"html-keyboard-response","146","376436","0.0-45.0-21.0-17.0-12.0-20.0-21.0-10.0","B07PRESH","PRE","","null","","display digit","<div class=""stimulus"">6</div>","null","6,7,2,9,3,7,0,1,3,1,3","","","6",""
"html-keyboard-response","147","378222","0.0-45.0-21.0-17.0-12.0-20.0-21.0-11.0","B07PRESH","PRE","","null","","display digit","<div class=""stimulus"">7</div>","null","6,7,2,9,3,7,0,1,3,1,3","","","7",""
"html-keyboard-response","148","380012","0.0-45.0-21.0-17.0-12.0-20.0-21.0-12.0","B07PRESH","PRE","","null","","display digit","<div class=""stimulus"">2</div>","null","6,7,2,9,3,7,0,1,3,1,3","","","2",""
"html-keyboard-response","149","381800","0.0-45.0-21.0-17.0-12.0-20.0-21.0-13.0","B07PRESH","PRE","","null","","display digit","<div class=""stimulus"">9</div>","null","6,7,2,9,3,7,0,1,3,1,3","","","9",""
"html-keyboard-response","150","383589","0.0-45.0-21.0-17.0-12.0-20.0-21.0-14.0","B07PRESH","PRE","","null","","display digit","<div class=""stimulus"">3</div>","null","6,7,2,9,3,7,0,1,3,1,3","","","3",""
"html-keyboard-response","151","385379","0.0-45.0-21.0-17.0-12.0-20.0-21.0-15.0","B07PRESH","PRE","","null","","display digit","<div class=""stimulus"">7</div>","null","6,7,2,9,3,7,0,1,3,1,3","","","7",""
"html-keyboard-response","152","387168","0.0-45.0-21.0-17.0-12.0-20.0-21.0-16.0","B07PRESH","PRE","","null","","display digit","<div class=""stimulus"">0</div>","null","6,7,2,9,3,7,0,1,3,1,3","","","0",""
"html-keyboard-response","153","388957","0.0-45.0-21.0-17.0-12.0-20.0-21.0-17.0","B07PRESH","PRE","","null","","display digit","<div class=""stimulus"">1</div>","null","6,7,2,9,3,7,0,1,3,1,3","","","1",""
"html-keyboard-response","154","390746","0.0-45.0-21.0-17.0-12.0-20.0-21.0-18.0","B07PRESH","PRE","","null","","display digit","<div class=""stimulus"">3</div>","null","6,7,2,9,3,7,0,1,3,1,3","","","3",""
"html-keyboard-response","155","392535","0.0-45.0-21.0-17.0-12.0-20.0-21.0-19.0","B07PRESH","PRE","","null","","display digit","<div class=""stimulus"">1</div>","null","6,7,2,9,3,7,0,1,3,1,3","","","1",""
"html-keyboard-response","156","394324","0.0-45.0-21.0-17.0-12.0-20.0-21.0-20.0","B07PRESH","PRE","","null","","display digit","<div class=""stimulus"">3</div>","null","6,7,2,9,3,7,0,1,3,1,3","","","3",""
"survey-html-form-autofocus","157","410365","0.0-45.0-21.0-17.0-12.0-20.0-21.0-21.0","B07PRESH","PRE","","15377.100006103516","{""recall"":""5973103""}","recall","","","67293701313","5973103","3701313","","false"
"html-keyboard-response","158","411829","0.0-45.0-21.0-17.0-12.0-20.0-21.0-22.0-0.0","B07PRESH","PRE","","null","","fixation cross","<div class='stimulus'>+</div>","null","","","","",""
"html-keyboard-response","159","413618","0.0-45.0-21.0-17.0-12.0-20.0-21.0-22.0-1.0","B07PRESH","PRE","","null","","display digit","<div class=""stimulus"">8</div>","null","8,1,8,4,2,5,8,4","","","8",""
"html-keyboard-response","160","415406","0.0-45.0-21.0-17.0-12.0-20.0-21.0-22.0-2.0","B07PRESH","PRE","","null","","display digit","<div class=""stimulus"">1</div>","null","8,1,8,4,2,5,8,4","","","1",""
"html-keyboard-response","161","417196","0.0-45.0-21.0-17.0-12.0-20.0-21.0-22.0-3.0","B07PRESH","PRE","","null","","display digit","<div class=""stimulus"">8</div>","null","8,1,8,4,2,5,8,4","","","8",""
"html-keyboard-response","162","418984","0.0-45.0-21.0-17.0-12.0-20.0-21.0-22.0-4.0","B07PRESH","PRE","","null","","display digit","<div class=""stimulus"">4</div>","null","8,1,8,4,2,5,8,4","","","4",""
"html-keyboard-response","163","420773","0.0-45.0-21.0-17.0-12.0-20.0-21.0-22.0-5.0","B07PRESH","PRE","","null","","display digit","<div class=""stimulus"">2</div>","null","8,1,8,4,2,5,8,4","","","2",""
"html-keyboard-response","164","422563","0.0-45.0-21.0-17.0-12.0-20.0-21.0-22.0-6.0","B07PRESH","PRE","","null","","display digit","<div class=""stimulus"">5</div>","null","8,1,8,4,2,5,8,4","","","5",""
"html-keyboard-response","165","424352","0.0-45.0-21.0-17.0-12.0-20.0-21.0-22.0-7.0","B07PRESH","PRE","","null","","display digit","<div class=""stimulus"">8</div>","null","8,1,8,4,2,5,8,4","","","8",""
"html-keyboard-response","166","426142","0.0-45.0-21.0-17.0-12.0-20.0-21.0-22.0-8.0","B07PRESH","PRE","","null","","display digit","<div class=""stimulus"">4</div>","null","8,1,8,4,2,5,8,4","","","4",""
"survey-html-form-autofocus","167","439831","0.0-45.0-21.0-17.0-12.0-20.0-21.0-22.0-9.0","B07PRESH","PRE","","13024.900001525879","{""recall"":""81842518""}","recall","","","81842584","81842518","81842584","","false"
"html-keyboard-response","168","441295","0.0-45.0-21.0-17.0-12.0-20.0-21.0-22.0-10.0","B07PRESH","PRE","","null","","fixation cross","<div class='stimulus'>+</div>","null","","","","",""
"html-keyboard-response","169","443084","0.0-45.0-21.0-17.0-12.0-20.0-21.0-22.0-11.0","B07PRESH","PRE","","null","","display digit","<div class=""stimulus"">0</div>","null","0,4,6,9,0,9,0,8,1,0,1,2,0","","","0",""
"html-keyboard-response","170","444873","0.0-45.0-21.0-17.0-12.0-20.0-21.0-22.0-12.0","B07PRESH","PRE","","null","","display digit","<div class=""stimulus"">4</div>","null","0,4,6,9,0,9,0,8,1,0,1,2,0","","","4",""
"html-keyboard-response","171","446662","0.0-45.0-21.0-17.0-12.0-20.0-21.0-22.0-13.0","B07PRESH","PRE","","null","","display digit","<div class=""stimulus"">6</div>","null","0,4,6,9,0,9,0,8,1,0,1,2,0","","","6",""
"html-keyboard-response","172","448450","0.0-45.0-21.0-17.0-12.0-20.0-21.0-22.0-14.0","B07PRESH","PRE","","null","","display digit","<div class=""stimulus"">9</div>","null","0,4,6,9,0,9,0,8,1,0,1,2,0","","","9",""
"html-keyboard-response","173","450240","0.0-45.0-21.0-17.0-12.0-20.0-21.0-22.0-15.0","B07PRESH","PRE","","null","","display digit","<div class=""stimulus"">0</div>","null","0,4,6,9,0,9,0,8,1,0,1,2,0","","","0",""
"html-keyboard-response","174","452029","0.0-45.0-21.0-17.0-12.0-20.0-21.0-22.0-16.0","B07PRESH","PRE","","null","","display digit","<div class=""stimulus"">9</div>","null","0,4,6,9,0,9,0,8,1,0,1,2,0","","","9",""
"html-keyboard-response","175","453818","0.0-45.0-21.0-17.0-12.0-20.0-21.0-22.0-17.0","B07PRESH","PRE","","null","","display digit","<div class=""stimulus"">0</div>","null","0,4,6,9,0,9,0,8,1,0,1,2,0","","","0",""
"html-keyboard-response","176","455607","0.0-45.0-21.0-17.0-12.0-20.0-21.0-22.0-18.0","B07PRESH","PRE","","null","","display digit","<div class=""stimulus"">8</div>","null","0,4,6,9,0,9,0,8,1,0,1,2,0","","","8",""
"html-keyboard-response","177","457395","0.0-45.0-21.0-17.0-12.0-20.0-21.0-22.0-19.0","B07PRESH","PRE","","null","","display digit","<div class=""stimulus"">1</div>","null","0,4,6,9,0,9,0,8,1,0,1,2,0","","","1",""
"html-keyboard-response","178","459185","0.0-45.0-21.0-17.0-12.0-20.0-21.0-22.0-20.0","B07PRESH","PRE","","null","","display digit","<div class=""stimulus"">0</div>","null","0,4,6,9,0,9,0,8,1,0,1,2,0","","","0",""
"html-keyboard-response","179","460974","0.0-45.0-21.0-17.0-12.0-20.0-21.0-22.0-21.0","B07PRESH","PRE","","null","","display digit","<div class=""stimulus"">1</div>","null","0,4,6,9,0,9,0,8,1,0,1,2,0","","","1",""
"html-keyboard-response","180","462763","0.0-45.0-21.0-17.0-12.0-20.0-21.0-22.0-22.0","B07PRESH","PRE","","null","","display digit","<div class=""stimulus"">2</div>","null","0,4,6,9,0,9,0,8,1,0,1,2,0","","","2",""
"html-keyboard-response","181","464553","0.0-45.0-21.0-17.0-12.0-20.0-21.0-22.0-23.0","B07PRESH","PRE","","null","","display digit","<div class=""stimulus"">0</div>","null","0,4,6,9,0,9,0,8,1,0,1,2,0","","","0",""
"survey-html-form-autofocus","182","490565","0.0-45.0-21.0-17.0-12.0-20.0-21.0-22.0-24.0","B07PRESH","PRE","","25348.300003051758","{""recall"":""69130120""}","recall","","","0469090810120","69130120","90810120","","false"
"html-keyboard-response","183","500887","0.0-46.0","B07PRESH","PRE","","9659.699996948242","","","<p>End of the experiment.<br/>			   		You reached level 8 and your					total score is 13.</p>					<p class=""important"">PRESS SPACE TO FINISH THE EXPERIMENT.</p>","32","","","","",""
"fullscreen","184","501900","0.0-47.0","B07PRESH","PRE","true","","","","","","","","","",""
