"trial_type","trial_index","time_elapsed","internal_node_id","userID","sessionType","success","rt","responses","stage","stimulus","key_press","sequence","recall","sequence_last_digits","digit","correct"
"pavlovia","0","3","0.0-0.0","B01PRESH","PRE","","","","","","","","","","",""
"fullscreen","1","3735","0.0-1.0","B01PRESH","PRE","true","","","","","","","","","",""
"survey-html-form","2","16301","0.0-2.0","B01PRESH","PRE","","11901.5","{""userID"":""B01PRESH"",""type"":""PRE""}","userID","","","","","","",""
"html-keyboard-response","3","31347","0.0-3.0","B01PRESH","PRE","","14382.800003051758","","","<p>Welcome to this task.</p>			<p>You will see a set of numbers, presented one at a time.<br/>			You need to pay attention to the numbers in the list and their order.<br/>			The list will end abruptly at any time. You will be told to enter the LAST X number of digits.</p>			<p>[Press SPACE to practice]</p>","32","","","","",""
"html-keyboard-response","4","32161","0.0-4.0","B01PRESH","PRE","","null","","fixation cross","<div class='stimulus'>+</div>","null","","","","",""
"html-keyboard-response","5","33951","0.0-5.0","B01PRESH","PRE","","null","","practice display digit","<div class=""stimulus"">9</div>","null","9,8,3","","","",""
"html-keyboard-response","6","35740","0.0-6.0","B01PRESH","PRE","","null","","practice display digit","<div class=""stimulus"">8</div>","null","9,8,3","","","",""
"html-keyboard-response","7","37529","0.0-7.0","B01PRESH","PRE","","null","","practice display digit","<div class=""stimulus"">3</div>","null","9,8,3","","","",""
"survey-html-form-autofocus","8","43251","0.0-8.0","B01PRESH","PRE","","5055.299995422363","{""recall"":""83""}","practice recall","","","983","","83","",""
"html-keyboard-response","9","45039","0.0-9.0","B01PRESH","PRE","","1124.3999938964844","","","<span class='correct'>Perfect!</span><br/>Press SPACE to continue.","32","","","","",""
"html-keyboard-response","10","45852","0.0-10.0","B01PRESH","PRE","","null","","fixation cross","<div class='stimulus'>+</div>","null","","","","",""
"html-keyboard-response","11","47641","0.0-11.0","B01PRESH","PRE","","null","","practice display digit","<div class=""stimulus"">4</div>","null","4,8,2,1,9","","","",""
"html-keyboard-response","12","49431","0.0-12.0","B01PRESH","PRE","","null","","practice display digit","<div class=""stimulus"">8</div>","null","4,8,2,1,9","","","",""
"html-keyboard-response","13","51220","0.0-13.0","B01PRESH","PRE","","null","","practice display digit","<div class=""stimulus"">2</div>","null","4,8,2,1,9","","","",""
"html-keyboard-response","14","53009","0.0-14.0","B01PRESH","PRE","","null","","practice display digit","<div class=""stimulus"">1</div>","null","4,8,2,1,9","","","",""
"html-keyboard-response","15","54798","0.0-15.0","B01PRESH","PRE","","null","","practice display digit","<div class=""stimulus"">9</div>","null","4,8,2,1,9","","","",""
"survey-html-form-autofocus","16","62050","0.0-16.0","B01PRESH","PRE","","6586.900001525879","{""recall"":""219""}","practice recall","","","48219","","219","",""
"html-keyboard-response","17","63389","0.0-17.0","B01PRESH","PRE","","675.2000045776367","","","<span class='correct'>Perfect!</span><br/>Press SPACE to continue.","32","","","","",""
"html-keyboard-response","18","64202","0.0-18.0","B01PRESH","PRE","","null","","fixation cross","<div class='stimulus'>+</div>","null","","","","",""
"html-keyboard-response","19","65990","0.0-19.0","B01PRESH","PRE","","null","","practice display digit","<div class=""stimulus"">5</div>","null","5,7,1,9,4,2,3,6","","","",""
"html-keyboard-response","20","67779","0.0-20.0","B01PRESH","PRE","","null","","practice display digit","<div class=""stimulus"">7</div>","null","5,7,1,9,4,2,3,6","","","",""
"html-keyboard-response","21","69568","0.0-21.0","B01PRESH","PRE","","null","","practice display digit","<div class=""stimulus"">1</div>","null","5,7,1,9,4,2,3,6","","","",""
"html-keyboard-response","22","71358","0.0-22.0","B01PRESH","PRE","","null","","practice display digit","<div class=""stimulus"">9</div>","null","5,7,1,9,4,2,3,6","","","",""
"html-keyboard-response","23","73147","0.0-23.0","B01PRESH","PRE","","null","","practice display digit","<div class=""stimulus"">4</div>","null","5,7,1,9,4,2,3,6","","","",""
"html-keyboard-response","24","74936","0.0-24.0","B01PRESH","PRE","","null","","practice display digit","<div class=""stimulus"">2</div>","null","5,7,1,9,4,2,3,6","","","",""
"html-keyboard-response","25","76725","0.0-25.0","B01PRESH","PRE","","null","","practice display digit","<div class=""stimulus"">3</div>","null","5,7,1,9,4,2,3,6","","","",""
"html-keyboard-response","26","78514","0.0-26.0","B01PRESH","PRE","","null","","practice display digit","<div class=""stimulus"">6</div>","null","5,7,1,9,4,2,3,6","","","",""
"survey-html-form-autofocus","27","92684","0.0-27.0","B01PRESH","PRE","","13505.099998474121","{""recall"":""4263""}","practice recall","","","57194236","","4236","",""
"html-keyboard-response","28","98796","0.0-28.0","B01PRESH","PRE","","5449.400001525879","","","<p>The sequence was 57194236					and you input 4263.<br/>					<span class='incorrect'>You should have written 4236.</span></p>						<p>Press SPACE to continue</p>","32","","","","",""
"html-keyboard-response","29","103408","0.0-29.0","B01PRESH","PRE","","4599.699996948242","","","<p>That was the practice section.<br/>			<p>Now goes the official part of the task.<br/>			You won't be given any feedback on your performance.</p>			<p>R U ready?</p>			<p>[Press Y to begin]</p>","89","","","","",""
"html-keyboard-response","30","104872","0.0-30.0","B01PRESH","PRE","","null","","fixation cross","<div class='stimulus'>+</div>","null","","","","",""
"html-keyboard-response","31","106662","0.0-31.0","B01PRESH","PRE","","null","","display digit","<div class=""stimulus"">0</div>","null","0,4,2,0","","","0",""
"html-keyboard-response","32","108451","0.0-32.0","B01PRESH","PRE","","null","","display digit","<div class=""stimulus"">4</div>","null","0,4,2,0","","","4",""
"html-keyboard-response","33","110239","0.0-33.0","B01PRESH","PRE","","null","","display digit","<div class=""stimulus"">2</div>","null","0,4,2,0","","","2",""
"html-keyboard-response","34","112028","0.0-34.0","B01PRESH","PRE","","null","","display digit","<div class=""stimulus"">0</div>","null","0,4,2,0","","","0",""
"survey-html-form-autofocus","35","116448","0.0-35.0","B01PRESH","PRE","","3755.400001525879","{""recall"":""0""}","recall","","","0420","0","0","","true"
"html-keyboard-response","36","117912","0.0-36.0","B01PRESH","PRE","","null","","fixation cross","<div class='stimulus'>+</div>","null","","","","",""
"html-keyboard-response","37","119701","0.0-37.0","B01PRESH","PRE","","null","","display digit","<div class=""stimulus"">3</div>","null","3,8","","","3",""
"html-keyboard-response","38","121491","0.0-38.0","B01PRESH","PRE","","null","","display digit","<div class=""stimulus"">8</div>","null","3,8","","","8",""
"survey-html-form-autofocus","39","125166","0.0-39.0","B01PRESH","PRE","","3010.5","{""recall"":""8""}","recall","","","38","8","8","","true"
"html-keyboard-response","40","126631","0.0-40.0-0.0","B01PRESH","PRE","","null","","fixation cross","<div class='stimulus'>+</div>","null","","","","",""
"html-keyboard-response","41","128420","0.0-40.0-1.0","B01PRESH","PRE","","null","","display digit","<div class=""stimulus"">6</div>","null","6,4,0,8,4","","","6",""
"html-keyboard-response","42","130209","0.0-40.0-2.0","B01PRESH","PRE","","null","","display digit","<div class=""stimulus"">4</div>","null","6,4,0,8,4","","","4",""
"html-keyboard-response","43","131998","0.0-40.0-3.0","B01PRESH","PRE","","null","","display digit","<div class=""stimulus"">0</div>","null","6,4,0,8,4","","","0",""
"html-keyboard-response","44","133787","0.0-40.0-4.0","B01PRESH","PRE","","null","","display digit","<div class=""stimulus"">8</div>","null","6,4,0,8,4","","","8",""
"html-keyboard-response","45","135576","0.0-40.0-5.0","B01PRESH","PRE","","null","","display digit","<div class=""stimulus"">4</div>","null","6,4,0,8,4","","","4",""
"survey-html-form-autofocus","46","140915","0.0-40.0-6.0","B01PRESH","PRE","","4674.5","{""recall"":""84""}","recall","","","64084","84","84","","true"
"html-keyboard-response","47","142379","0.0-40.0-7.0","B01PRESH","PRE","","null","","fixation cross","<div class='stimulus'>+</div>","null","","","","",""
"html-keyboard-response","48","144168","0.0-40.0-8.0","B01PRESH","PRE","","null","","display digit","<div class=""stimulus"">2</div>","null","2,9,4,6,7,0,6,0,2,8,0,6,4","","","2",""
"html-keyboard-response","49","145957","0.0-40.0-9.0","B01PRESH","PRE","","null","","display digit","<div class=""stimulus"">9</div>","null","2,9,4,6,7,0,6,0,2,8,0,6,4","","","9",""
"html-keyboard-response","50","147744","0.0-40.0-10.0","B01PRESH","PRE","","null","","display digit","<div class=""stimulus"">4</div>","null","2,9,4,6,7,0,6,0,2,8,0,6,4","","","4",""
"html-keyboard-response","51","149533","0.0-40.0-11.0","B01PRESH","PRE","","null","","display digit","<div class=""stimulus"">6</div>","null","2,9,4,6,7,0,6,0,2,8,0,6,4","","","6",""
"html-keyboard-response","52","151322","0.0-40.0-12.0","B01PRESH","PRE","","null","","display digit","<div class=""stimulus"">7</div>","null","2,9,4,6,7,0,6,0,2,8,0,6,4","","","7",""
"html-keyboard-response","53","153111","0.0-40.0-13.0","B01PRESH","PRE","","null","","display digit","<div class=""stimulus"">0</div>","null","2,9,4,6,7,0,6,0,2,8,0,6,4","","","0",""
"html-keyboard-response","54","154900","0.0-40.0-14.0","B01PRESH","PRE","","null","","display digit","<div class=""stimulus"">6</div>","null","2,9,4,6,7,0,6,0,2,8,0,6,4","","","6",""
"html-keyboard-response","55","156690","0.0-40.0-15.0","B01PRESH","PRE","","null","","display digit","<div class=""stimulus"">0</div>","null","2,9,4,6,7,0,6,0,2,8,0,6,4","","","0",""
"html-keyboard-response","56","158479","0.0-40.0-16.0","B01PRESH","PRE","","null","","display digit","<div class=""stimulus"">2</div>","null","2,9,4,6,7,0,6,0,2,8,0,6,4","","","2",""
"html-keyboard-response","57","160268","0.0-40.0-17.0","B01PRESH","PRE","","null","","display digit","<div class=""stimulus"">8</div>","null","2,9,4,6,7,0,6,0,2,8,0,6,4","","","8",""
"html-keyboard-response","58","162057","0.0-40.0-18.0","B01PRESH","PRE","","null","","display digit","<div class=""stimulus"">0</div>","null","2,9,4,6,7,0,6,0,2,8,0,6,4","","","0",""
"html-keyboard-response","59","163845","0.0-40.0-19.0","B01PRESH","PRE","","null","","display digit","<div class=""stimulus"">6</div>","null","2,9,4,6,7,0,6,0,2,8,0,6,4","","","6",""
"html-keyboard-response","60","165634","0.0-40.0-20.0","B01PRESH","PRE","","null","","display digit","<div class=""stimulus"">4</div>","null","2,9,4,6,7,0,6,0,2,8,0,6,4","","","4",""
"survey-html-form-autofocus","61","169965","0.0-40.0-21.0","B01PRESH","PRE","","3666.7000045776367","{""recall"":""64""}","recall","","","2946706028064","64","64","","true"
"html-keyboard-response","62","171429","0.0-40.0-22.0-0.0","B01PRESH","PRE","","null","","fixation cross","<div class='stimulus'>+</div>","null","","","","",""
"html-keyboard-response","63","173217","0.0-40.0-22.0-1.0","B01PRESH","PRE","","null","","display digit","<div class=""stimulus"">2</div>","null","2,9,1","","","2",""
"html-keyboard-response","64","175006","0.0-40.0-22.0-2.0","B01PRESH","PRE","","null","","display digit","<div class=""stimulus"">9</div>","null","2,9,1","","","9",""
"html-keyboard-response","65","176795","0.0-40.0-22.0-3.0","B01PRESH","PRE","","null","","display digit","<div class=""stimulus"">1</div>","null","2,9,1","","","1",""
"survey-html-form-autofocus","66","181532","0.0-40.0-22.0-4.0","B01PRESH","PRE","","4072.099998474121","{""recall"":""291""}","recall","","","291","291","291","","true"
"html-keyboard-response","67","182996","0.0-40.0-22.0-5.0","B01PRESH","PRE","","null","","fixation cross","<div class='stimulus'>+</div>","null","","","","",""
"html-keyboard-response","68","184784","0.0-40.0-22.0-6.0","B01PRESH","PRE","","null","","display digit","<div class=""stimulus"">3</div>","null","3,4,8,6,1,2,6,1","","","3",""
"html-keyboard-response","69","186573","0.0-40.0-22.0-7.0","B01PRESH","PRE","","null","","display digit","<div class=""stimulus"">4</div>","null","3,4,8,6,1,2,6,1","","","4",""
"html-keyboard-response","70","188362","0.0-40.0-22.0-8.0","B01PRESH","PRE","","null","","display digit","<div class=""stimulus"">8</div>","null","3,4,8,6,1,2,6,1","","","8",""
"html-keyboard-response","71","190151","0.0-40.0-22.0-9.0","B01PRESH","PRE","","null","","display digit","<div class=""stimulus"">6</div>","null","3,4,8,6,1,2,6,1","","","6",""
"html-keyboard-response","72","191940","0.0-40.0-22.0-10.0","B01PRESH","PRE","","null","","display digit","<div class=""stimulus"">1</div>","null","3,4,8,6,1,2,6,1","","","1",""
"html-keyboard-response","73","193729","0.0-40.0-22.0-11.0","B01PRESH","PRE","","null","","display digit","<div class=""stimulus"">2</div>","null","3,4,8,6,1,2,6,1","","","2",""
"html-keyboard-response","74","195518","0.0-40.0-22.0-12.0","B01PRESH","PRE","","null","","display digit","<div class=""stimulus"">6</div>","null","3,4,8,6,1,2,6,1","","","6",""
"html-keyboard-response","75","197307","0.0-40.0-22.0-13.0","B01PRESH","PRE","","null","","display digit","<div class=""stimulus"">1</div>","null","3,4,8,6,1,2,6,1","","","1",""
"survey-html-form-autofocus","76","202482","0.0-40.0-22.0-14.0","B01PRESH","PRE","","4510.800003051758","{""recall"":""161""}","recall","","","34861261","161","261","","false"
"html-keyboard-response","77","203947","0.0-40.0-22.0-15.0-0.0","B01PRESH","PRE","","null","","fixation cross","<div class='stimulus'>+</div>","null","","","","",""
"html-keyboard-response","78","205736","0.0-40.0-22.0-15.0-1.0","B01PRESH","PRE","","null","","display digit","<div class=""stimulus"">7</div>","null","7,3,1,3","","","7",""
"html-keyboard-response","79","207525","0.0-40.0-22.0-15.0-2.0","B01PRESH","PRE","","null","","display digit","<div class=""stimulus"">3</div>","null","7,3,1,3","","","3",""
"html-keyboard-response","80","209314","0.0-40.0-22.0-15.0-3.0","B01PRESH","PRE","","null","","display digit","<div class=""stimulus"">1</div>","null","7,3,1,3","","","1",""
"html-keyboard-response","81","211103","0.0-40.0-22.0-15.0-4.0","B01PRESH","PRE","","null","","display digit","<div class=""stimulus"">3</div>","null","7,3,1,3","","","3",""
"survey-html-form-autofocus","82","217165","0.0-40.0-22.0-15.0-5.0","B01PRESH","PRE","","5397","{""recall"":""7313""}","recall","","","7313","7313","7313","","true"
"html-keyboard-response","83","218629","0.0-40.0-22.0-15.0-6.0","B01PRESH","PRE","","null","","fixation cross","<div class='stimulus'>+</div>","null","","","","",""
"html-keyboard-response","84","220419","0.0-40.0-22.0-15.0-7.0","B01PRESH","PRE","","null","","display digit","<div class=""stimulus"">7</div>","null","7,8,7,4,7,0,5","","","7",""
"html-keyboard-response","85","222208","0.0-40.0-22.0-15.0-8.0","B01PRESH","PRE","","null","","display digit","<div class=""stimulus"">8</div>","null","7,8,7,4,7,0,5","","","8",""
"html-keyboard-response","86","223997","0.0-40.0-22.0-15.0-9.0","B01PRESH","PRE","","null","","display digit","<div class=""stimulus"">7</div>","null","7,8,7,4,7,0,5","","","7",""
"html-keyboard-response","87","225786","0.0-40.0-22.0-15.0-10.0","B01PRESH","PRE","","null","","display digit","<div class=""stimulus"">4</div>","null","7,8,7,4,7,0,5","","","4",""
"html-keyboard-response","88","227575","0.0-40.0-22.0-15.0-11.0","B01PRESH","PRE","","null","","display digit","<div class=""stimulus"">7</div>","null","7,8,7,4,7,0,5","","","7",""
"html-keyboard-response","89","229364","0.0-40.0-22.0-15.0-12.0","B01PRESH","PRE","","null","","display digit","<div class=""stimulus"">0</div>","null","7,8,7,4,7,0,5","","","0",""
"html-keyboard-response","90","231152","0.0-40.0-22.0-15.0-13.0","B01PRESH","PRE","","null","","display digit","<div class=""stimulus"">5</div>","null","7,8,7,4,7,0,5","","","5",""
"survey-html-form-autofocus","91","245782","0.0-40.0-22.0-15.0-14.0","B01PRESH","PRE","","13966.399993896484","{""recall"":""4705""}","recall","","","7874705","4705","4705","","true"
"html-keyboard-response","92","247246","0.0-40.0-22.0-15.0-15.0-0.0","B01PRESH","PRE","","null","","fixation cross","<div class='stimulus'>+</div>","null","","","","",""
"html-keyboard-response","93","249035","0.0-40.0-22.0-15.0-15.0-1.0","B01PRESH","PRE","","null","","display digit","<div class=""stimulus"">8</div>","null","8,9,2,1,3,9,0,5,8,6,7","","","8",""
"html-keyboard-response","94","250824","0.0-40.0-22.0-15.0-15.0-2.0","B01PRESH","PRE","","null","","display digit","<div class=""stimulus"">9</div>","null","8,9,2,1,3,9,0,5,8,6,7","","","9",""
"html-keyboard-response","95","252613","0.0-40.0-22.0-15.0-15.0-3.0","B01PRESH","PRE","","null","","display digit","<div class=""stimulus"">2</div>","null","8,9,2,1,3,9,0,5,8,6,7","","","2",""
"html-keyboard-response","96","254401","0.0-40.0-22.0-15.0-15.0-4.0","B01PRESH","PRE","","null","","display digit","<div class=""stimulus"">1</div>","null","8,9,2,1,3,9,0,5,8,6,7","","","1",""
"html-keyboard-response","97","256190","0.0-40.0-22.0-15.0-15.0-5.0","B01PRESH","PRE","","null","","display digit","<div class=""stimulus"">3</div>","null","8,9,2,1,3,9,0,5,8,6,7","","","3",""
"html-keyboard-response","98","257979","0.0-40.0-22.0-15.0-15.0-6.0","B01PRESH","PRE","","null","","display digit","<div class=""stimulus"">9</div>","null","8,9,2,1,3,9,0,5,8,6,7","","","9",""
"html-keyboard-response","99","259768","0.0-40.0-22.0-15.0-15.0-7.0","B01PRESH","PRE","","null","","display digit","<div class=""stimulus"">0</div>","null","8,9,2,1,3,9,0,5,8,6,7","","","0",""
"html-keyboard-response","100","261558","0.0-40.0-22.0-15.0-15.0-8.0","B01PRESH","PRE","","null","","display digit","<div class=""stimulus"">5</div>","null","8,9,2,1,3,9,0,5,8,6,7","","","5",""
"html-keyboard-response","101","263346","0.0-40.0-22.0-15.0-15.0-9.0","B01PRESH","PRE","","null","","display digit","<div class=""stimulus"">8</div>","null","8,9,2,1,3,9,0,5,8,6,7","","","8",""
"html-keyboard-response","102","265136","0.0-40.0-22.0-15.0-15.0-10.0","B01PRESH","PRE","","null","","display digit","<div class=""stimulus"">6</div>","null","8,9,2,1,3,9,0,5,8,6,7","","","6",""
"html-keyboard-response","103","266925","0.0-40.0-22.0-15.0-15.0-11.0","B01PRESH","PRE","","null","","display digit","<div class=""stimulus"">7</div>","null","8,9,2,1,3,9,0,5,8,6,7","","","7",""
"survey-html-form-autofocus","104","283681","0.0-40.0-22.0-15.0-15.0-12.0","B01PRESH","PRE","","16092.400001525879","{""recall"":""95867""}","recall","","","89213905867","95867","05867","","false"
"html-keyboard-response","105","285146","0.0-40.0-22.0-15.0-15.0-13.0","B01PRESH","PRE","","null","","fixation cross","<div class='stimulus'>+</div>","null","","","","",""
"html-keyboard-response","106","286935","0.0-40.0-22.0-15.0-15.0-14.0","B01PRESH","PRE","","null","","display digit","<div class=""stimulus"">1</div>","null","1,7,6,5,7,4,2,7,8","","","1",""
"html-keyboard-response","107","288725","0.0-40.0-22.0-15.0-15.0-15.0","B01PRESH","PRE","","null","","display digit","<div class=""stimulus"">7</div>","null","1,7,6,5,7,4,2,7,8","","","7",""
"html-keyboard-response","108","290513","0.0-40.0-22.0-15.0-15.0-16.0","B01PRESH","PRE","","null","","display digit","<div class=""stimulus"">6</div>","null","1,7,6,5,7,4,2,7,8","","","6",""
"html-keyboard-response","109","292302","0.0-40.0-22.0-15.0-15.0-17.0","B01PRESH","PRE","","null","","display digit","<div class=""stimulus"">5</div>","null","1,7,6,5,7,4,2,7,8","","","5",""
"html-keyboard-response","110","294091","0.0-40.0-22.0-15.0-15.0-18.0","B01PRESH","PRE","","null","","display digit","<div class=""stimulus"">7</div>","null","1,7,6,5,7,4,2,7,8","","","7",""
"html-keyboard-response","111","295879","0.0-40.0-22.0-15.0-15.0-19.0","B01PRESH","PRE","","null","","display digit","<div class=""stimulus"">4</div>","null","1,7,6,5,7,4,2,7,8","","","4",""
"html-keyboard-response","112","297668","0.0-40.0-22.0-15.0-15.0-20.0","B01PRESH","PRE","","null","","display digit","<div class=""stimulus"">2</div>","null","1,7,6,5,7,4,2,7,8","","","2",""
"html-keyboard-response","113","299456","0.0-40.0-22.0-15.0-15.0-21.0","B01PRESH","PRE","","null","","display digit","<div class=""stimulus"">7</div>","null","1,7,6,5,7,4,2,7,8","","","7",""
"html-keyboard-response","114","301246","0.0-40.0-22.0-15.0-15.0-22.0","B01PRESH","PRE","","null","","display digit","<div class=""stimulus"">8</div>","null","1,7,6,5,7,4,2,7,8","","","8",""
"survey-html-form-autofocus","115","307298","0.0-40.0-22.0-15.0-15.0-23.0","B01PRESH","PRE","","5387.700004577637","{""recall"":""74278""}","recall","","","176574278","74278","74278","","true"
"html-keyboard-response","116","308763","0.0-40.0-22.0-15.0-15.0-24.0-0.0","B01PRESH","PRE","","null","","fixation cross","<div class='stimulus'>+</div>","null","","","","",""
"html-keyboard-response","117","310551","0.0-40.0-22.0-15.0-15.0-24.0-1.0","B01PRESH","PRE","","null","","display digit","<div class=""stimulus"">8</div>","null","8,1,9,4,6,3,5,2,1,5,4","","","8",""
"html-keyboard-response","118","312341","0.0-40.0-22.0-15.0-15.0-24.0-2.0","B01PRESH","PRE","","null","","display digit","<div class=""stimulus"">1</div>","null","8,1,9,4,6,3,5,2,1,5,4","","","1",""
"html-keyboard-response","119","314129","0.0-40.0-22.0-15.0-15.0-24.0-3.0","B01PRESH","PRE","","null","","display digit","<div class=""stimulus"">9</div>","null","8,1,9,4,6,3,5,2,1,5,4","","","9",""
"html-keyboard-response","120","315918","0.0-40.0-22.0-15.0-15.0-24.0-4.0","B01PRESH","PRE","","null","","display digit","<div class=""stimulus"">4</div>","null","8,1,9,4,6,3,5,2,1,5,4","","","4",""
"html-keyboard-response","121","317708","0.0-40.0-22.0-15.0-15.0-24.0-5.0","B01PRESH","PRE","","null","","display digit","<div class=""stimulus"">6</div>","null","8,1,9,4,6,3,5,2,1,5,4","","","6",""
"html-keyboard-response","122","319497","0.0-40.0-22.0-15.0-15.0-24.0-6.0","B01PRESH","PRE","","null","","display digit","<div class=""stimulus"">3</div>","null","8,1,9,4,6,3,5,2,1,5,4","","","3",""
"html-keyboard-response","123","321285","0.0-40.0-22.0-15.0-15.0-24.0-7.0","B01PRESH","PRE","","null","","display digit","<div class=""stimulus"">5</div>","null","8,1,9,4,6,3,5,2,1,5,4","","","5",""
"html-keyboard-response","124","323074","0.0-40.0-22.0-15.0-15.0-24.0-8.0","B01PRESH","PRE","","null","","display digit","<div class=""stimulus"">2</div>","null","8,1,9,4,6,3,5,2,1,5,4","","","2",""
"html-keyboard-response","125","324864","0.0-40.0-22.0-15.0-15.0-24.0-9.0","B01PRESH","PRE","","null","","display digit","<div class=""stimulus"">1</div>","null","8,1,9,4,6,3,5,2,1,5,4","","","1",""
"html-keyboard-response","126","326653","0.0-40.0-22.0-15.0-15.0-24.0-10.0","B01PRESH","PRE","","null","","display digit","<div class=""stimulus"">5</div>","null","8,1,9,4,6,3,5,2,1,5,4","","","5",""
"html-keyboard-response","127","328442","0.0-40.0-22.0-15.0-15.0-24.0-11.0","B01PRESH","PRE","","null","","display digit","<div class=""stimulus"">4</div>","null","8,1,9,4,6,3,5,2,1,5,4","","","4",""
"survey-html-form-autofocus","128","341581","0.0-40.0-22.0-15.0-15.0-24.0-12.0","B01PRESH","PRE","","12474.300003051758","{""recall"":""352154""}","recall","","","81946352154","352154","352154","","true"
"html-keyboard-response","129","343046","0.0-40.0-22.0-15.0-15.0-24.0-13.0","B01PRESH","PRE","","null","","fixation cross","<div class='stimulus'>+</div>","null","","","","",""
"html-keyboard-response","130","344834","0.0-40.0-22.0-15.0-15.0-24.0-14.0","B01PRESH","PRE","","null","","display digit","<div class=""stimulus"">2</div>","null","2,6,7,8,1,9,7,0,6","","","2",""
"html-keyboard-response","131","346624","0.0-40.0-22.0-15.0-15.0-24.0-15.0","B01PRESH","PRE","","null","","display digit","<div class=""stimulus"">6</div>","null","2,6,7,8,1,9,7,0,6","","","6",""
"html-keyboard-response","132","348412","0.0-40.0-22.0-15.0-15.0-24.0-16.0","B01PRESH","PRE","","null","","display digit","<div class=""stimulus"">7</div>","null","2,6,7,8,1,9,7,0,6","","","7",""
"html-keyboard-response","133","350201","0.0-40.0-22.0-15.0-15.0-24.0-17.0","B01PRESH","PRE","","null","","display digit","<div class=""stimulus"">8</div>","null","2,6,7,8,1,9,7,0,6","","","8",""
"html-keyboard-response","134","351989","0.0-40.0-22.0-15.0-15.0-24.0-18.0","B01PRESH","PRE","","null","","display digit","<div class=""stimulus"">1</div>","null","2,6,7,8,1,9,7,0,6","","","1",""
"html-keyboard-response","135","353779","0.0-40.0-22.0-15.0-15.0-24.0-19.0","B01PRESH","PRE","","null","","display digit","<div class=""stimulus"">9</div>","null","2,6,7,8,1,9,7,0,6","","","9",""
"html-keyboard-response","136","355568","0.0-40.0-22.0-15.0-15.0-24.0-20.0","B01PRESH","PRE","","null","","display digit","<div class=""stimulus"">7</div>","null","2,6,7,8,1,9,7,0,6","","","7",""
"html-keyboard-response","137","357357","0.0-40.0-22.0-15.0-15.0-24.0-21.0","B01PRESH","PRE","","null","","display digit","<div class=""stimulus"">0</div>","null","2,6,7,8,1,9,7,0,6","","","0",""
"html-keyboard-response","138","359146","0.0-40.0-22.0-15.0-15.0-24.0-22.0","B01PRESH","PRE","","null","","display digit","<div class=""stimulus"">6</div>","null","2,6,7,8,1,9,7,0,6","","","6",""
"survey-html-form-autofocus","139","396430","0.0-40.0-22.0-15.0-15.0-24.0-23.0","B01PRESH","PRE","","36620.80000305176","{""recall"":""978706""}","recall","","","267819706","978706","819706","","false"
"html-keyboard-response","140","397895","0.0-40.0-22.0-15.0-15.0-24.0-24.0-0.0","B01PRESH","PRE","","null","","fixation cross","<div class='stimulus'>+</div>","null","","","","",""
"html-keyboard-response","141","399685","0.0-40.0-22.0-15.0-15.0-24.0-24.0-1.0","B01PRESH","PRE","","null","","display digit","<div class=""stimulus"">5</div>","null","5,7,6,4,9,7,4,7,5,6,5","","","5",""
"html-keyboard-response","142","401474","0.0-40.0-22.0-15.0-15.0-24.0-24.0-2.0","B01PRESH","PRE","","null","","display digit","<div class=""stimulus"">7</div>","null","5,7,6,4,9,7,4,7,5,6,5","","","7",""
"html-keyboard-response","143","403263","0.0-40.0-22.0-15.0-15.0-24.0-24.0-3.0","B01PRESH","PRE","","null","","display digit","<div class=""stimulus"">6</div>","null","5,7,6,4,9,7,4,7,5,6,5","","","6",""
"html-keyboard-response","144","405052","0.0-40.0-22.0-15.0-15.0-24.0-24.0-4.0","B01PRESH","PRE","","null","","display digit","<div class=""stimulus"">4</div>","null","5,7,6,4,9,7,4,7,5,6,5","","","4",""
"html-keyboard-response","145","406841","0.0-40.0-22.0-15.0-15.0-24.0-24.0-5.0","B01PRESH","PRE","","null","","display digit","<div class=""stimulus"">9</div>","null","5,7,6,4,9,7,4,7,5,6,5","","","9",""
"html-keyboard-response","146","408630","0.0-40.0-22.0-15.0-15.0-24.0-24.0-6.0","B01PRESH","PRE","","null","","display digit","<div class=""stimulus"">7</div>","null","5,7,6,4,9,7,4,7,5,6,5","","","7",""
"html-keyboard-response","147","410419","0.0-40.0-22.0-15.0-15.0-24.0-24.0-7.0","B01PRESH","PRE","","null","","display digit","<div class=""stimulus"">4</div>","null","5,7,6,4,9,7,4,7,5,6,5","","","4",""
"html-keyboard-response","148","412209","0.0-40.0-22.0-15.0-15.0-24.0-24.0-8.0","B01PRESH","PRE","","null","","display digit","<div class=""stimulus"">7</div>","null","5,7,6,4,9,7,4,7,5,6,5","","","7",""
"html-keyboard-response","149","413998","0.0-40.0-22.0-15.0-15.0-24.0-24.0-9.0","B01PRESH","PRE","","null","","display digit","<div class=""stimulus"">5</div>","null","5,7,6,4,9,7,4,7,5,6,5","","","5",""
"html-keyboard-response","150","415787","0.0-40.0-22.0-15.0-15.0-24.0-24.0-10.0","B01PRESH","PRE","","null","","display digit","<div class=""stimulus"">6</div>","null","5,7,6,4,9,7,4,7,5,6,5","","","6",""
"html-keyboard-response","151","417576","0.0-40.0-22.0-15.0-15.0-24.0-24.0-11.0","B01PRESH","PRE","","null","","display digit","<div class=""stimulus"">5</div>","null","5,7,6,4,9,7,4,7,5,6,5","","","5",""
"survey-html-form-autofocus","152","457447","0.0-40.0-22.0-15.0-15.0-24.0-24.0-12.0","B01PRESH","PRE","","39208.70000457764","{""recall"":""6497781""}","recall","","","57649747565","6497781","9747565","","false"
"html-keyboard-response","153","458911","0.0-40.0-22.0-15.0-15.0-24.0-24.0-13.0","B01PRESH","PRE","","null","","fixation cross","<div class='stimulus'>+</div>","null","","","","",""
"html-keyboard-response","154","460701","0.0-40.0-22.0-15.0-15.0-24.0-24.0-14.0","B01PRESH","PRE","","null","","display digit","<div class=""stimulus"">9</div>","null","9,4,3,0,7,2,5,0,7,0","","","9",""
"html-keyboard-response","155","462491","0.0-40.0-22.0-15.0-15.0-24.0-24.0-15.0","B01PRESH","PRE","","null","","display digit","<div class=""stimulus"">4</div>","null","9,4,3,0,7,2,5,0,7,0","","","4",""
"html-keyboard-response","156","464280","0.0-40.0-22.0-15.0-15.0-24.0-24.0-16.0","B01PRESH","PRE","","null","","display digit","<div class=""stimulus"">3</div>","null","9,4,3,0,7,2,5,0,7,0","","","3",""
"html-keyboard-response","157","466070","0.0-40.0-22.0-15.0-15.0-24.0-24.0-17.0","B01PRESH","PRE","","null","","display digit","<div class=""stimulus"">0</div>","null","9,4,3,0,7,2,5,0,7,0","","","0",""
"html-keyboard-response","158","467859","0.0-40.0-22.0-15.0-15.0-24.0-24.0-18.0","B01PRESH","PRE","","null","","display digit","<div class=""stimulus"">7</div>","null","9,4,3,0,7,2,5,0,7,0","","","7",""
"html-keyboard-response","159","469648","0.0-40.0-22.0-15.0-15.0-24.0-24.0-19.0","B01PRESH","PRE","","null","","display digit","<div class=""stimulus"">2</div>","null","9,4,3,0,7,2,5,0,7,0","","","2",""
"html-keyboard-response","160","471437","0.0-40.0-22.0-15.0-15.0-24.0-24.0-20.0","B01PRESH","PRE","","null","","display digit","<div class=""stimulus"">5</div>","null","9,4,3,0,7,2,5,0,7,0","","","5",""
"html-keyboard-response","161","473227","0.0-40.0-22.0-15.0-15.0-24.0-24.0-21.0","B01PRESH","PRE","","null","","display digit","<div class=""stimulus"">0</div>","null","9,4,3,0,7,2,5,0,7,0","","","0",""
"html-keyboard-response","162","475016","0.0-40.0-22.0-15.0-15.0-24.0-24.0-22.0","B01PRESH","PRE","","null","","display digit","<div class=""stimulus"">7</div>","null","9,4,3,0,7,2,5,0,7,0","","","7",""
"html-keyboard-response","163","476805","0.0-40.0-22.0-15.0-15.0-24.0-24.0-23.0","B01PRESH","PRE","","null","","display digit","<div class=""stimulus"">0</div>","null","9,4,3,0,7,2,5,0,7,0","","","0",""
"survey-html-form-autofocus","164","494646","0.0-40.0-22.0-15.0-15.0-24.0-24.0-24.0","B01PRESH","PRE","","17177.399993896484","{""recall"":""0725070""}","recall","","","9430725070","0725070","0725070","","true"
"html-keyboard-response","165","496110","0.0-40.0-22.0-15.0-15.0-24.0-24.0-25.0-0.0","B01PRESH","PRE","","null","","fixation cross","<div class='stimulus'>+</div>","null","","","","",""
"html-keyboard-response","166","497900","0.0-40.0-22.0-15.0-15.0-24.0-24.0-25.0-1.0","B01PRESH","PRE","","null","","display digit","<div class=""stimulus"">9</div>","null","9,0,2,8,2,4,6,9,4","","","9",""
"html-keyboard-response","167","499689","0.0-40.0-22.0-15.0-15.0-24.0-24.0-25.0-2.0","B01PRESH","PRE","","null","","display digit","<div class=""stimulus"">0</div>","null","9,0,2,8,2,4,6,9,4","","","0",""
"html-keyboard-response","168","501478","0.0-40.0-22.0-15.0-15.0-24.0-24.0-25.0-3.0","B01PRESH","PRE","","null","","display digit","<div class=""stimulus"">2</div>","null","9,0,2,8,2,4,6,9,4","","","2",""
"html-keyboard-response","169","503266","0.0-40.0-22.0-15.0-15.0-24.0-24.0-25.0-4.0","B01PRESH","PRE","","null","","display digit","<div class=""stimulus"">8</div>","null","9,0,2,8,2,4,6,9,4","","","8",""
"html-keyboard-response","170","505055","0.0-40.0-22.0-15.0-15.0-24.0-24.0-25.0-5.0","B01PRESH","PRE","","null","","display digit","<div class=""stimulus"">2</div>","null","9,0,2,8,2,4,6,9,4","","","2",""
"html-keyboard-response","171","506844","0.0-40.0-22.0-15.0-15.0-24.0-24.0-25.0-6.0","B01PRESH","PRE","","null","","display digit","<div class=""stimulus"">4</div>","null","9,0,2,8,2,4,6,9,4","","","4",""
"html-keyboard-response","172","508633","0.0-40.0-22.0-15.0-15.0-24.0-24.0-25.0-7.0","B01PRESH","PRE","","null","","display digit","<div class=""stimulus"">6</div>","null","9,0,2,8,2,4,6,9,4","","","6",""
"html-keyboard-response","173","510422","0.0-40.0-22.0-15.0-15.0-24.0-24.0-25.0-8.0","B01PRESH","PRE","","null","","display digit","<div class=""stimulus"">9</div>","null","9,0,2,8,2,4,6,9,4","","","9",""
"html-keyboard-response","174","512211","0.0-40.0-22.0-15.0-15.0-24.0-24.0-25.0-9.0","B01PRESH","PRE","","null","","display digit","<div class=""stimulus"">4</div>","null","9,0,2,8,2,4,6,9,4","","","4",""
"survey-html-form-autofocus","175","534129","0.0-40.0-22.0-15.0-15.0-24.0-24.0-25.0-10.0","B01PRESH","PRE","","21255.199996948242","{""recall"":""02824694""}","recall","","","902824694","02824694","02824694","","true"
"html-keyboard-response","176","535594","0.0-40.0-22.0-15.0-15.0-24.0-24.0-25.0-11.0","B01PRESH","PRE","","null","","fixation cross","<div class='stimulus'>+</div>","null","","","","",""
"html-keyboard-response","177","537383","0.0-40.0-22.0-15.0-15.0-24.0-24.0-25.0-12.0","B01PRESH","PRE","","null","","display digit","<div class=""stimulus"">3</div>","null","3,5,0,8,5,2,4,0,2,6,4,5,2","","","3",""
"html-keyboard-response","178","539172","0.0-40.0-22.0-15.0-15.0-24.0-24.0-25.0-13.0","B01PRESH","PRE","","null","","display digit","<div class=""stimulus"">5</div>","null","3,5,0,8,5,2,4,0,2,6,4,5,2","","","5",""
"html-keyboard-response","179","540961","0.0-40.0-22.0-15.0-15.0-24.0-24.0-25.0-14.0","B01PRESH","PRE","","null","","display digit","<div class=""stimulus"">0</div>","null","3,5,0,8,5,2,4,0,2,6,4,5,2","","","0",""
"html-keyboard-response","180","542750","0.0-40.0-22.0-15.0-15.0-24.0-24.0-25.0-15.0","B01PRESH","PRE","","null","","display digit","<div class=""stimulus"">8</div>","null","3,5,0,8,5,2,4,0,2,6,4,5,2","","","8",""
"html-keyboard-response","181","544540","0.0-40.0-22.0-15.0-15.0-24.0-24.0-25.0-16.0","B01PRESH","PRE","","null","","display digit","<div class=""stimulus"">5</div>","null","3,5,0,8,5,2,4,0,2,6,4,5,2","","","5",""
"html-keyboard-response","182","546329","0.0-40.0-22.0-15.0-15.0-24.0-24.0-25.0-17.0","B01PRESH","PRE","","null","","display digit","<div class=""stimulus"">2</div>","null","3,5,0,8,5,2,4,0,2,6,4,5,2","","","2",""
"html-keyboard-response","183","548118","0.0-40.0-22.0-15.0-15.0-24.0-24.0-25.0-18.0","B01PRESH","PRE","","null","","display digit","<div class=""stimulus"">4</div>","null","3,5,0,8,5,2,4,0,2,6,4,5,2","","","4",""
"html-keyboard-response","184","549907","0.0-40.0-22.0-15.0-15.0-24.0-24.0-25.0-19.0","B01PRESH","PRE","","null","","display digit","<div class=""stimulus"">0</div>","null","3,5,0,8,5,2,4,0,2,6,4,5,2","","","0",""
"html-keyboard-response","185","551696","0.0-40.0-22.0-15.0-15.0-24.0-24.0-25.0-20.0","B01PRESH","PRE","","null","","display digit","<div class=""stimulus"">2</div>","null","3,5,0,8,5,2,4,0,2,6,4,5,2","","","2",""
"html-keyboard-response","186","553484","0.0-40.0-22.0-15.0-15.0-24.0-24.0-25.0-21.0","B01PRESH","PRE","","null","","display digit","<div class=""stimulus"">6</div>","null","3,5,0,8,5,2,4,0,2,6,4,5,2","","","6",""
"html-keyboard-response","187","555273","0.0-40.0-22.0-15.0-15.0-24.0-24.0-25.0-22.0","B01PRESH","PRE","","null","","display digit","<div class=""stimulus"">4</div>","null","3,5,0,8,5,2,4,0,2,6,4,5,2","","","4",""
"html-keyboard-response","188","557062","0.0-40.0-22.0-15.0-15.0-24.0-24.0-25.0-23.0","B01PRESH","PRE","","null","","display digit","<div class=""stimulus"">5</div>","null","3,5,0,8,5,2,4,0,2,6,4,5,2","","","5",""
"html-keyboard-response","189","558851","0.0-40.0-22.0-15.0-15.0-24.0-24.0-25.0-24.0","B01PRESH","PRE","","null","","display digit","<div class=""stimulus"">2</div>","null","3,5,0,8,5,2,4,0,2,6,4,5,2","","","2",""
"survey-html-form-autofocus","190","586046","0.0-40.0-22.0-15.0-15.0-24.0-24.0-25.0-25.0","B01PRESH","PRE","","26531","{""recall"":""52645082""}","recall","","","3508524026452","52645082","24026452","","false"
"html-keyboard-response","191","587511","0.0-40.0-22.0-15.0-15.0-24.0-24.0-25.0-26.0-0.0","B01PRESH","PRE","","null","","fixation cross","<div class='stimulus'>+</div>","null","","","","",""
"html-keyboard-response","192","589300","0.0-40.0-22.0-15.0-15.0-24.0-24.0-25.0-26.0-1.0","B01PRESH","PRE","","null","","display digit","<div class=""stimulus"">6</div>","null","6,1,0,8,7,8,0,7,4,8","","","6",""
"html-keyboard-response","193","591089","0.0-40.0-22.0-15.0-15.0-24.0-24.0-25.0-26.0-2.0","B01PRESH","PRE","","null","","display digit","<div class=""stimulus"">1</div>","null","6,1,0,8,7,8,0,7,4,8","","","1",""
"html-keyboard-response","194","592878","0.0-40.0-22.0-15.0-15.0-24.0-24.0-25.0-26.0-3.0","B01PRESH","PRE","","null","","display digit","<div class=""stimulus"">0</div>","null","6,1,0,8,7,8,0,7,4,8","","","0",""
"html-keyboard-response","195","594667","0.0-40.0-22.0-15.0-15.0-24.0-24.0-25.0-26.0-4.0","B01PRESH","PRE","","null","","display digit","<div class=""stimulus"">8</div>","null","6,1,0,8,7,8,0,7,4,8","","","8",""
"html-keyboard-response","196","596457","0.0-40.0-22.0-15.0-15.0-24.0-24.0-25.0-26.0-5.0","B01PRESH","PRE","","null","","display digit","<div class=""stimulus"">7</div>","null","6,1,0,8,7,8,0,7,4,8","","","7",""
"html-keyboard-response","197","598246","0.0-40.0-22.0-15.0-15.0-24.0-24.0-25.0-26.0-6.0","B01PRESH","PRE","","null","","display digit","<div class=""stimulus"">8</div>","null","6,1,0,8,7,8,0,7,4,8","","","8",""
"html-keyboard-response","198","600036","0.0-40.0-22.0-15.0-15.0-24.0-24.0-25.0-26.0-7.0","B01PRESH","PRE","","null","","display digit","<div class=""stimulus"">0</div>","null","6,1,0,8,7,8,0,7,4,8","","","0",""
"html-keyboard-response","199","601825","0.0-40.0-22.0-15.0-15.0-24.0-24.0-25.0-26.0-8.0","B01PRESH","PRE","","null","","display digit","<div class=""stimulus"">7</div>","null","6,1,0,8,7,8,0,7,4,8","","","7",""
"html-keyboard-response","200","603614","0.0-40.0-22.0-15.0-15.0-24.0-24.0-25.0-26.0-9.0","B01PRESH","PRE","","null","","display digit","<div class=""stimulus"">4</div>","null","6,1,0,8,7,8,0,7,4,8","","","4",""
"html-keyboard-response","201","605403","0.0-40.0-22.0-15.0-15.0-24.0-24.0-25.0-26.0-10.0","B01PRESH","PRE","","null","","display digit","<div class=""stimulus"">8</div>","null","6,1,0,8,7,8,0,7,4,8","","","8",""
"survey-html-form-autofocus","202","641145","0.0-40.0-22.0-15.0-15.0-24.0-24.0-25.0-26.0-11.0","B01PRESH","PRE","","35078.30000305176","{""recall"":""108780748""}","recall","","","6108780748","108780748","108780748","","true"
"html-keyboard-response","203","642609","0.0-40.0-22.0-15.0-15.0-24.0-24.0-25.0-26.0-12.0","B01PRESH","PRE","","null","","fixation cross","<div class='stimulus'>+</div>","null","","","","",""
"html-keyboard-response","204","644398","0.0-40.0-22.0-15.0-15.0-24.0-24.0-25.0-26.0-13.0","B01PRESH","PRE","","null","","display digit","<div class=""stimulus"">9</div>","null","9,6,1,8,2,6,2,0,9","","","9",""
"html-keyboard-response","205","646188","0.0-40.0-22.0-15.0-15.0-24.0-24.0-25.0-26.0-14.0","B01PRESH","PRE","","null","","display digit","<div class=""stimulus"">6</div>","null","9,6,1,8,2,6,2,0,9","","","6",""
"html-keyboard-response","206","647977","0.0-40.0-22.0-15.0-15.0-24.0-24.0-25.0-26.0-15.0","B01PRESH","PRE","","null","","display digit","<div class=""stimulus"">1</div>","null","9,6,1,8,2,6,2,0,9","","","1",""
"html-keyboard-response","207","649766","0.0-40.0-22.0-15.0-15.0-24.0-24.0-25.0-26.0-16.0","B01PRESH","PRE","","null","","display digit","<div class=""stimulus"">8</div>","null","9,6,1,8,2,6,2,0,9","","","8",""
"html-keyboard-response","208","651556","0.0-40.0-22.0-15.0-15.0-24.0-24.0-25.0-26.0-17.0","B01PRESH","PRE","","null","","display digit","<div class=""stimulus"">2</div>","null","9,6,1,8,2,6,2,0,9","","","2",""
"html-keyboard-response","209","653344","0.0-40.0-22.0-15.0-15.0-24.0-24.0-25.0-26.0-18.0","B01PRESH","PRE","","null","","display digit","<div class=""stimulus"">6</div>","null","9,6,1,8,2,6,2,0,9","","","6",""
"html-keyboard-response","210","655134","0.0-40.0-22.0-15.0-15.0-24.0-24.0-25.0-26.0-19.0","B01PRESH","PRE","","null","","display digit","<div class=""stimulus"">2</div>","null","9,6,1,8,2,6,2,0,9","","","2",""
"html-keyboard-response","211","656923","0.0-40.0-22.0-15.0-15.0-24.0-24.0-25.0-26.0-20.0","B01PRESH","PRE","","null","","display digit","<div class=""stimulus"">0</div>","null","9,6,1,8,2,6,2,0,9","","","0",""
"html-keyboard-response","212","658712","0.0-40.0-22.0-15.0-15.0-24.0-24.0-25.0-26.0-21.0","B01PRESH","PRE","","null","","display digit","<div class=""stimulus"">9</div>","null","9,6,1,8,2,6,2,0,9","","","9",""
"survey-html-form-autofocus","213","682012","0.0-40.0-22.0-15.0-15.0-24.0-24.0-25.0-26.0-22.0","B01PRESH","PRE","","22636.299995422363","{""recall"":""961826209""}","recall","","","961826209","961826209","961826209","","true"
"html-keyboard-response","214","683476","0.0-40.0-22.0-15.0-15.0-24.0-24.0-25.0-26.0-23.0-0.0","B01PRESH","PRE","","null","","fixation cross","<div class='stimulus'>+</div>","null","","","","",""
"html-keyboard-response","215","685265","0.0-40.0-22.0-15.0-15.0-24.0-24.0-25.0-26.0-23.0-1.0","B01PRESH","PRE","","null","","display digit","<div class=""stimulus"">5</div>","null","5,0,7,9,2,5,7,5,2,7,2,0,5","","","5",""
"html-keyboard-response","216","687055","0.0-40.0-22.0-15.0-15.0-24.0-24.0-25.0-26.0-23.0-2.0","B01PRESH","PRE","","null","","display digit","<div class=""stimulus"">0</div>","null","5,0,7,9,2,5,7,5,2,7,2,0,5","","","0",""
"html-keyboard-response","217","688843","0.0-40.0-22.0-15.0-15.0-24.0-24.0-25.0-26.0-23.0-3.0","B01PRESH","PRE","","null","","display digit","<div class=""stimulus"">7</div>","null","5,0,7,9,2,5,7,5,2,7,2,0,5","","","7",""
"html-keyboard-response","218","690633","0.0-40.0-22.0-15.0-15.0-24.0-24.0-25.0-26.0-23.0-4.0","B01PRESH","PRE","","null","","display digit","<div class=""stimulus"">9</div>","null","5,0,7,9,2,5,7,5,2,7,2,0,5","","","9",""
"html-keyboard-response","219","692422","0.0-40.0-22.0-15.0-15.0-24.0-24.0-25.0-26.0-23.0-5.0","B01PRESH","PRE","","null","","display digit","<div class=""stimulus"">2</div>","null","5,0,7,9,2,5,7,5,2,7,2,0,5","","","2",""
"html-keyboard-response","220","694211","0.0-40.0-22.0-15.0-15.0-24.0-24.0-25.0-26.0-23.0-6.0","B01PRESH","PRE","","null","","display digit","<div class=""stimulus"">5</div>","null","5,0,7,9,2,5,7,5,2,7,2,0,5","","","5",""
"html-keyboard-response","221","696000","0.0-40.0-22.0-15.0-15.0-24.0-24.0-25.0-26.0-23.0-7.0","B01PRESH","PRE","","null","","display digit","<div class=""stimulus"">7</div>","null","5,0,7,9,2,5,7,5,2,7,2,0,5","","","7",""
"html-keyboard-response","222","697789","0.0-40.0-22.0-15.0-15.0-24.0-24.0-25.0-26.0-23.0-8.0","B01PRESH","PRE","","null","","display digit","<div class=""stimulus"">5</div>","null","5,0,7,9,2,5,7,5,2,7,2,0,5","","","5",""
"html-keyboard-response","223","699579","0.0-40.0-22.0-15.0-15.0-24.0-24.0-25.0-26.0-23.0-9.0","B01PRESH","PRE","","null","","display digit","<div class=""stimulus"">2</div>","null","5,0,7,9,2,5,7,5,2,7,2,0,5","","","2",""
"html-keyboard-response","224","701368","0.0-40.0-22.0-15.0-15.0-24.0-24.0-25.0-26.0-23.0-10.0","B01PRESH","PRE","","null","","display digit","<div class=""stimulus"">7</div>","null","5,0,7,9,2,5,7,5,2,7,2,0,5","","","7",""
"html-keyboard-response","225","703157","0.0-40.0-22.0-15.0-15.0-24.0-24.0-25.0-26.0-23.0-11.0","B01PRESH","PRE","","null","","display digit","<div class=""stimulus"">2</div>","null","5,0,7,9,2,5,7,5,2,7,2,0,5","","","2",""
"html-keyboard-response","226","704946","0.0-40.0-22.0-15.0-15.0-24.0-24.0-25.0-26.0-23.0-12.0","B01PRESH","PRE","","null","","display digit","<div class=""stimulus"">0</div>","null","5,0,7,9,2,5,7,5,2,7,2,0,5","","","0",""
"html-keyboard-response","227","706736","0.0-40.0-22.0-15.0-15.0-24.0-24.0-25.0-26.0-23.0-13.0","B01PRESH","PRE","","null","","display digit","<div class=""stimulus"">5</div>","null","5,0,7,9,2,5,7,5,2,7,2,0,5","","","5",""
"survey-html-form-autofocus","228","765395","0.0-40.0-22.0-15.0-15.0-24.0-24.0-25.0-26.0-23.0-14.0","B01PRESH","PRE","","57996.70000457764","{""recall"":""527927205""}","recall","","","5079257527205","527927205","9257527205","","false"
"html-keyboard-response","229","766859","0.0-40.0-22.0-15.0-15.0-24.0-24.0-25.0-26.0-23.0-15.0","B01PRESH","PRE","","null","","fixation cross","<div class='stimulus'>+</div>","null","","","","",""
"html-keyboard-response","230","768647","0.0-40.0-22.0-15.0-15.0-24.0-24.0-25.0-26.0-23.0-16.0","B01PRESH","PRE","","null","","display digit","<div class=""stimulus"">3</div>","null","3,0,5,4,0,7,5,2,1,4,8,0","","","3",""
"html-keyboard-response","231","770436","0.0-40.0-22.0-15.0-15.0-24.0-24.0-25.0-26.0-23.0-17.0","B01PRESH","PRE","","null","","display digit","<div class=""stimulus"">0</div>","null","3,0,5,4,0,7,5,2,1,4,8,0","","","0",""
"html-keyboard-response","232","772224","0.0-40.0-22.0-15.0-15.0-24.0-24.0-25.0-26.0-23.0-18.0","B01PRESH","PRE","","null","","display digit","<div class=""stimulus"">5</div>","null","3,0,5,4,0,7,5,2,1,4,8,0","","","5",""
"html-keyboard-response","233","774013","0.0-40.0-22.0-15.0-15.0-24.0-24.0-25.0-26.0-23.0-19.0","B01PRESH","PRE","","null","","display digit","<div class=""stimulus"">4</div>","null","3,0,5,4,0,7,5,2,1,4,8,0","","","4",""
"html-keyboard-response","234","775802","0.0-40.0-22.0-15.0-15.0-24.0-24.0-25.0-26.0-23.0-20.0","B01PRESH","PRE","","null","","display digit","<div class=""stimulus"">0</div>","null","3,0,5,4,0,7,5,2,1,4,8,0","","","0",""
"html-keyboard-response","235","777592","0.0-40.0-22.0-15.0-15.0-24.0-24.0-25.0-26.0-23.0-21.0","B01PRESH","PRE","","null","","display digit","<div class=""stimulus"">7</div>","null","3,0,5,4,0,7,5,2,1,4,8,0","","","7",""
"html-keyboard-response","236","779381","0.0-40.0-22.0-15.0-15.0-24.0-24.0-25.0-26.0-23.0-22.0","B01PRESH","PRE","","null","","display digit","<div class=""stimulus"">5</div>","null","3,0,5,4,0,7,5,2,1,4,8,0","","","5",""
"html-keyboard-response","237","781169","0.0-40.0-22.0-15.0-15.0-24.0-24.0-25.0-26.0-23.0-23.0","B01PRESH","PRE","","null","","display digit","<div class=""stimulus"">2</div>","null","3,0,5,4,0,7,5,2,1,4,8,0","","","2",""
"html-keyboard-response","238","782958","0.0-40.0-22.0-15.0-15.0-24.0-24.0-25.0-26.0-23.0-24.0","B01PRESH","PRE","","null","","display digit","<div class=""stimulus"">1</div>","null","3,0,5,4,0,7,5,2,1,4,8,0","","","1",""
"html-keyboard-response","239","784747","0.0-40.0-22.0-15.0-15.0-24.0-24.0-25.0-26.0-23.0-25.0","B01PRESH","PRE","","null","","display digit","<div class=""stimulus"">4</div>","null","3,0,5,4,0,7,5,2,1,4,8,0","","","4",""
"html-keyboard-response","240","786537","0.0-40.0-22.0-15.0-15.0-24.0-24.0-25.0-26.0-23.0-26.0","B01PRESH","PRE","","null","","display digit","<div class=""stimulus"">8</div>","null","3,0,5,4,0,7,5,2,1,4,8,0","","","8",""
"html-keyboard-response","241","788326","0.0-40.0-22.0-15.0-15.0-24.0-24.0-25.0-26.0-23.0-27.0","B01PRESH","PRE","","null","","display digit","<div class=""stimulus"">0</div>","null","3,0,5,4,0,7,5,2,1,4,8,0","","","0",""
"survey-html-form-autofocus","242","831510","0.0-40.0-22.0-15.0-15.0-24.0-24.0-25.0-26.0-23.0-28.0","B01PRESH","PRE","","42520.80000305176","{""recall"":""4754075214""}","recall","","","305407521480","4754075214","5407521480","","false"
"html-keyboard-response","243","842543","0.0-41.0","B01PRESH","PRE","","10370","","","<p>End of the experiment.<br/>			   		You reached level 10 and your					total score is 13.</p>					<p class=""important"">PRESS SPACE TO FINISH THE EXPERIMENT.</p>","32","","","","",""
"fullscreen","244","843557","0.0-42.0","B01PRESH","PRE","true","","","","","","","","","",""
