"trial_type","trial_index","time_elapsed","internal_node_id","userID","sessionType","success","rt","responses","stage","stimulus","key_press","sequence","recall","sequence_last_digits","digit","correct"
"pavlovia","0","2","0.0-0.0","SO1PRESH","PRE","","","","","","","","","","",""
"fullscreen","1","3368","0.0-1.0","SO1PRESH","PRE","true","","","","","","","","","",""
"survey-html-form","2","11319","0.0-2.0","SO1PRESH","PRE","","7284.099998474121","{""userID"":""SO1PRESH"",""type"":""PRE""}","userID","","","","","","",""
"html-keyboard-response","3","30330","0.0-3.0","SO1PRESH","PRE","","18347.90000152588","","","<p>Welcome to this task.</p>			<p>You will see a set of numbers, presented one at a time.<br/>			You need to pay attention to the numbers in the list and their order.<br/>			The list will end abruptly at any time. You will be told to enter the LAST X number of digits.</p>			<p>[Press SPACE to practice]</p>","32","","","","",""
"html-keyboard-response","4","31145","0.0-4.0","SO1PRESH","PRE","","null","","fixation cross","<div class='stimulus'>+</div>","null","","","","",""
"html-keyboard-response","5","32935","0.0-5.0","SO1PRESH","PRE","","null","","practice display digit","<div class=""stimulus"">9</div>","null","9,8,3","","","",""
"html-keyboard-response","6","34724","0.0-6.0","SO1PRESH","PRE","","null","","practice display digit","<div class=""stimulus"">8</div>","null","9,8,3","","","",""
"html-keyboard-response","7","36513","0.0-7.0","SO1PRESH","PRE","","null","","practice display digit","<div class=""stimulus"">3</div>","null","9,8,3","","","",""
"survey-html-form-autofocus","8","42018","0.0-8.0","SO1PRESH","PRE","","4837.299995422363","{""recall"":""83""}","practice recall","","","983","","83","",""
"html-keyboard-response","9","44511","0.0-9.0","SO1PRESH","PRE","","1829.099998474121","","","<span class='correct'>Perfect!</span><br/>Press SPACE to continue.","32","","","","",""
"html-keyboard-response","10","45325","0.0-10.0","SO1PRESH","PRE","","null","","fixation cross","<div class='stimulus'>+</div>","null","","","","",""
"html-keyboard-response","11","47114","0.0-11.0","SO1PRESH","PRE","","null","","practice display digit","<div class=""stimulus"">4</div>","null","4,8,2,1,9","","","",""
"html-keyboard-response","12","48902","0.0-12.0","SO1PRESH","PRE","","null","","practice display digit","<div class=""stimulus"">8</div>","null","4,8,2,1,9","","","",""
"html-keyboard-response","13","50692","0.0-13.0","SO1PRESH","PRE","","null","","practice display digit","<div class=""stimulus"">2</div>","null","4,8,2,1,9","","","",""
"html-keyboard-response","14","52481","0.0-14.0","SO1PRESH","PRE","","null","","practice display digit","<div class=""stimulus"">1</div>","null","4,8,2,1,9","","","",""
"html-keyboard-response","15","54271","0.0-15.0","SO1PRESH","PRE","","null","","practice display digit","<div class=""stimulus"">9</div>","null","4,8,2,1,9","","","",""
"survey-html-form-autofocus","16","62100","0.0-16.0","SO1PRESH","PRE","","7163.800003051758","{""recall"":""219""}","practice recall","","","48219","","219","",""
"html-keyboard-response","17","63641","0.0-17.0","SO1PRESH","PRE","","878.6999969482422","","","<span class='correct'>Perfect!</span><br/>Press SPACE to continue.","32","","","","",""
"html-keyboard-response","18","64453","0.0-18.0","SO1PRESH","PRE","","null","","fixation cross","<div class='stimulus'>+</div>","null","","","","",""
"html-keyboard-response","19","66242","0.0-19.0","SO1PRESH","PRE","","null","","practice display digit","<div class=""stimulus"">5</div>","null","5,7,1,9,4,2,3,6","","","",""
"html-keyboard-response","20","68030","0.0-20.0","SO1PRESH","PRE","","null","","practice display digit","<div class=""stimulus"">7</div>","null","5,7,1,9,4,2,3,6","","","",""
"html-keyboard-response","21","69819","0.0-21.0","SO1PRESH","PRE","","null","","practice display digit","<div class=""stimulus"">1</div>","null","5,7,1,9,4,2,3,6","","","",""
"html-keyboard-response","22","71608","0.0-22.0","SO1PRESH","PRE","","null","","practice display digit","<div class=""stimulus"">9</div>","null","5,7,1,9,4,2,3,6","","","",""
"html-keyboard-response","23","73398","0.0-23.0","SO1PRESH","PRE","","null","","practice display digit","<div class=""stimulus"">4</div>","null","5,7,1,9,4,2,3,6","","","",""
"html-keyboard-response","24","75187","0.0-24.0","SO1PRESH","PRE","","null","","practice display digit","<div class=""stimulus"">2</div>","null","5,7,1,9,4,2,3,6","","","",""
"html-keyboard-response","25","76977","0.0-25.0","SO1PRESH","PRE","","null","","practice display digit","<div class=""stimulus"">3</div>","null","5,7,1,9,4,2,3,6","","","",""
"html-keyboard-response","26","78766","0.0-26.0","SO1PRESH","PRE","","null","","practice display digit","<div class=""stimulus"">6</div>","null","5,7,1,9,4,2,3,6","","","",""
"survey-html-form-autofocus","27","93118","0.0-27.0","SO1PRESH","PRE","","13687.899993896484","{""recall"":""3646""}","practice recall","","","57194236","","4236","",""
"html-keyboard-response","28","100109","0.0-28.0","SO1PRESH","PRE","","6328.199996948242","","","<p>The sequence was 57194236					and you input 3646.<br/>					<span class='incorrect'>You should have written 4236.</span></p>						<p>Press SPACE to continue</p>","32","","","","",""
"html-keyboard-response","29","106395","0.0-29.0","SO1PRESH","PRE","","6273.400001525879","","","<p>That was the practice section.<br/>			<p>Now goes the official part of the task.<br/>			You won't be given any feedback on your performance.</p>			<p>R U ready?</p>			<p>[Press Y to begin]</p>","89","","","","",""
"html-keyboard-response","30","107858","0.0-30.0","SO1PRESH","PRE","","null","","fixation cross","<div class='stimulus'>+</div>","null","","","","",""
"html-keyboard-response","31","109647","0.0-31.0","SO1PRESH","PRE","","null","","display digit","<div class=""stimulus"">3</div>","null","3,5","","","3",""
"html-keyboard-response","32","111436","0.0-32.0","SO1PRESH","PRE","","null","","display digit","<div class=""stimulus"">5</div>","null","3,5","","","5",""
"survey-html-form-autofocus","33","114333","0.0-33.0","SO1PRESH","PRE","","2232.400001525879","{""recall"":""5""}","recall","","","35","5","5","","true"
"html-keyboard-response","34","115797","0.0-34.0","SO1PRESH","PRE","","null","","fixation cross","<div class='stimulus'>+</div>","null","","","","",""
"html-keyboard-response","35","117587","0.0-35.0","SO1PRESH","PRE","","null","","display digit","<div class=""stimulus"">6</div>","null","6,0,9,4,7","","","6",""
"html-keyboard-response","36","119376","0.0-36.0","SO1PRESH","PRE","","null","","display digit","<div class=""stimulus"">0</div>","null","6,0,9,4,7","","","0",""
"html-keyboard-response","37","121165","0.0-37.0","SO1PRESH","PRE","","null","","display digit","<div class=""stimulus"">9</div>","null","6,0,9,4,7","","","9",""
"html-keyboard-response","38","122954","0.0-38.0","SO1PRESH","PRE","","null","","display digit","<div class=""stimulus"">4</div>","null","6,0,9,4,7","","","4",""
"html-keyboard-response","39","124743","0.0-39.0","SO1PRESH","PRE","","null","","display digit","<div class=""stimulus"">7</div>","null","6,0,9,4,7","","","7",""
"survey-html-form-autofocus","40","128550","0.0-40.0","SO1PRESH","PRE","","3143.1000061035156","{""recall"":""7""}","recall","","","60947","7","7","","true"
"html-keyboard-response","41","130016","0.0-41.0-0.0","SO1PRESH","PRE","","null","","fixation cross","<div class='stimulus'>+</div>","null","","","","",""
"html-keyboard-response","42","131804","0.0-41.0-1.0","SO1PRESH","PRE","","null","","display digit","<div class=""stimulus"">1</div>","null","1,6,9,3,1,5,2,6,1,6","","","1",""
"html-keyboard-response","43","133593","0.0-41.0-2.0","SO1PRESH","PRE","","null","","display digit","<div class=""stimulus"">6</div>","null","1,6,9,3,1,5,2,6,1,6","","","6",""
"html-keyboard-response","44","135382","0.0-41.0-3.0","SO1PRESH","PRE","","null","","display digit","<div class=""stimulus"">9</div>","null","1,6,9,3,1,5,2,6,1,6","","","9",""
"html-keyboard-response","45","137172","0.0-41.0-4.0","SO1PRESH","PRE","","null","","display digit","<div class=""stimulus"">3</div>","null","1,6,9,3,1,5,2,6,1,6","","","3",""
"html-keyboard-response","46","138960","0.0-41.0-5.0","SO1PRESH","PRE","","null","","display digit","<div class=""stimulus"">1</div>","null","1,6,9,3,1,5,2,6,1,6","","","1",""
"html-keyboard-response","47","140749","0.0-41.0-6.0","SO1PRESH","PRE","","null","","display digit","<div class=""stimulus"">5</div>","null","1,6,9,3,1,5,2,6,1,6","","","5",""
"html-keyboard-response","48","142536","0.0-41.0-7.0","SO1PRESH","PRE","","null","","display digit","<div class=""stimulus"">2</div>","null","1,6,9,3,1,5,2,6,1,6","","","2",""
"html-keyboard-response","49","144326","0.0-41.0-8.0","SO1PRESH","PRE","","null","","display digit","<div class=""stimulus"">6</div>","null","1,6,9,3,1,5,2,6,1,6","","","6",""
"html-keyboard-response","50","146114","0.0-41.0-9.0","SO1PRESH","PRE","","null","","display digit","<div class=""stimulus"">1</div>","null","1,6,9,3,1,5,2,6,1,6","","","1",""
"html-keyboard-response","51","147902","0.0-41.0-10.0","SO1PRESH","PRE","","null","","display digit","<div class=""stimulus"">6</div>","null","1,6,9,3,1,5,2,6,1,6","","","6",""
"survey-html-form-autofocus","52","152966","0.0-41.0-11.0","SO1PRESH","PRE","","4398.699996948242","{""recall"":""16""}","recall","","","1693152616","16","16","","true"
"html-keyboard-response","53","154431","0.0-41.0-12.0","SO1PRESH","PRE","","null","","fixation cross","<div class='stimulus'>+</div>","null","","","","",""
"html-keyboard-response","54","156219","0.0-41.0-13.0","SO1PRESH","PRE","","null","","display digit","<div class=""stimulus"">6</div>","null","6,0,9,4,2,8,0,9,1,5","","","6",""
"html-keyboard-response","55","158007","0.0-41.0-14.0","SO1PRESH","PRE","","null","","display digit","<div class=""stimulus"">0</div>","null","6,0,9,4,2,8,0,9,1,5","","","0",""
"html-keyboard-response","56","159795","0.0-41.0-15.0","SO1PRESH","PRE","","null","","display digit","<div class=""stimulus"">9</div>","null","6,0,9,4,2,8,0,9,1,5","","","9",""
"html-keyboard-response","57","161584","0.0-41.0-16.0","SO1PRESH","PRE","","null","","display digit","<div class=""stimulus"">4</div>","null","6,0,9,4,2,8,0,9,1,5","","","4",""
"html-keyboard-response","58","163373","0.0-41.0-17.0","SO1PRESH","PRE","","null","","display digit","<div class=""stimulus"">2</div>","null","6,0,9,4,2,8,0,9,1,5","","","2",""
"html-keyboard-response","59","165161","0.0-41.0-18.0","SO1PRESH","PRE","","null","","display digit","<div class=""stimulus"">8</div>","null","6,0,9,4,2,8,0,9,1,5","","","8",""
"html-keyboard-response","60","166951","0.0-41.0-19.0","SO1PRESH","PRE","","null","","display digit","<div class=""stimulus"">0</div>","null","6,0,9,4,2,8,0,9,1,5","","","0",""
"html-keyboard-response","61","168739","0.0-41.0-20.0","SO1PRESH","PRE","","null","","display digit","<div class=""stimulus"">9</div>","null","6,0,9,4,2,8,0,9,1,5","","","9",""
"html-keyboard-response","62","170529","0.0-41.0-21.0","SO1PRESH","PRE","","null","","display digit","<div class=""stimulus"">1</div>","null","6,0,9,4,2,8,0,9,1,5","","","1",""
"html-keyboard-response","63","172318","0.0-41.0-22.0","SO1PRESH","PRE","","null","","display digit","<div class=""stimulus"">5</div>","null","6,0,9,4,2,8,0,9,1,5","","","5",""
"survey-html-form-autofocus","64","175818","0.0-41.0-23.0","SO1PRESH","PRE","","2834.5","{""recall"":""15""}","recall","","","6094280915","15","15","","true"
"html-keyboard-response","65","177281","0.0-41.0-24.0-0.0","SO1PRESH","PRE","","null","","fixation cross","<div class='stimulus'>+</div>","null","","","","",""
"html-keyboard-response","66","179069","0.0-41.0-24.0-1.0","SO1PRESH","PRE","","null","","display digit","<div class=""stimulus"">7</div>","null","7,1,6,5,3,8,2,0","","","7",""
"html-keyboard-response","67","180858","0.0-41.0-24.0-2.0","SO1PRESH","PRE","","null","","display digit","<div class=""stimulus"">1</div>","null","7,1,6,5,3,8,2,0","","","1",""
"html-keyboard-response","68","182646","0.0-41.0-24.0-3.0","SO1PRESH","PRE","","null","","display digit","<div class=""stimulus"">6</div>","null","7,1,6,5,3,8,2,0","","","6",""
"html-keyboard-response","69","184435","0.0-41.0-24.0-4.0","SO1PRESH","PRE","","null","","display digit","<div class=""stimulus"">5</div>","null","7,1,6,5,3,8,2,0","","","5",""
"html-keyboard-response","70","186223","0.0-41.0-24.0-5.0","SO1PRESH","PRE","","null","","display digit","<div class=""stimulus"">3</div>","null","7,1,6,5,3,8,2,0","","","3",""
"html-keyboard-response","71","188011","0.0-41.0-24.0-6.0","SO1PRESH","PRE","","null","","display digit","<div class=""stimulus"">8</div>","null","7,1,6,5,3,8,2,0","","","8",""
"html-keyboard-response","72","189801","0.0-41.0-24.0-7.0","SO1PRESH","PRE","","null","","display digit","<div class=""stimulus"">2</div>","null","7,1,6,5,3,8,2,0","","","2",""
"html-keyboard-response","73","191589","0.0-41.0-24.0-8.0","SO1PRESH","PRE","","null","","display digit","<div class=""stimulus"">0</div>","null","7,1,6,5,3,8,2,0","","","0",""
"survey-html-form-autofocus","74","198634","0.0-41.0-24.0-9.0","SO1PRESH","PRE","","6379.699996948242","{""recall"":""820""}","recall","","","71653820","820","820","","true"
"html-keyboard-response","75","200098","0.0-41.0-24.0-10.0","SO1PRESH","PRE","","null","","fixation cross","<div class='stimulus'>+</div>","null","","","","",""
"html-keyboard-response","76","201887","0.0-41.0-24.0-11.0","SO1PRESH","PRE","","null","","display digit","<div class=""stimulus"">1</div>","null","1,8,3,1,9,5,7,0,1,8,4,9,6","","","1",""
"html-keyboard-response","77","203676","0.0-41.0-24.0-12.0","SO1PRESH","PRE","","null","","display digit","<div class=""stimulus"">8</div>","null","1,8,3,1,9,5,7,0,1,8,4,9,6","","","8",""
"html-keyboard-response","78","205465","0.0-41.0-24.0-13.0","SO1PRESH","PRE","","null","","display digit","<div class=""stimulus"">3</div>","null","1,8,3,1,9,5,7,0,1,8,4,9,6","","","3",""
"html-keyboard-response","79","207254","0.0-41.0-24.0-14.0","SO1PRESH","PRE","","null","","display digit","<div class=""stimulus"">1</div>","null","1,8,3,1,9,5,7,0,1,8,4,9,6","","","1",""
"html-keyboard-response","80","209043","0.0-41.0-24.0-15.0","SO1PRESH","PRE","","null","","display digit","<div class=""stimulus"">9</div>","null","1,8,3,1,9,5,7,0,1,8,4,9,6","","","9",""
"html-keyboard-response","81","210832","0.0-41.0-24.0-16.0","SO1PRESH","PRE","","null","","display digit","<div class=""stimulus"">5</div>","null","1,8,3,1,9,5,7,0,1,8,4,9,6","","","5",""
"html-keyboard-response","82","212620","0.0-41.0-24.0-17.0","SO1PRESH","PRE","","null","","display digit","<div class=""stimulus"">7</div>","null","1,8,3,1,9,5,7,0,1,8,4,9,6","","","7",""
"html-keyboard-response","83","214408","0.0-41.0-24.0-18.0","SO1PRESH","PRE","","null","","display digit","<div class=""stimulus"">0</div>","null","1,8,3,1,9,5,7,0,1,8,4,9,6","","","0",""
"html-keyboard-response","84","216197","0.0-41.0-24.0-19.0","SO1PRESH","PRE","","null","","display digit","<div class=""stimulus"">1</div>","null","1,8,3,1,9,5,7,0,1,8,4,9,6","","","1",""
"html-keyboard-response","85","217986","0.0-41.0-24.0-20.0","SO1PRESH","PRE","","null","","display digit","<div class=""stimulus"">8</div>","null","1,8,3,1,9,5,7,0,1,8,4,9,6","","","8",""
"html-keyboard-response","86","219775","0.0-41.0-24.0-21.0","SO1PRESH","PRE","","null","","display digit","<div class=""stimulus"">4</div>","null","1,8,3,1,9,5,7,0,1,8,4,9,6","","","4",""
"html-keyboard-response","87","221564","0.0-41.0-24.0-22.0","SO1PRESH","PRE","","null","","display digit","<div class=""stimulus"">9</div>","null","1,8,3,1,9,5,7,0,1,8,4,9,6","","","9",""
"html-keyboard-response","88","223352","0.0-41.0-24.0-23.0","SO1PRESH","PRE","","null","","display digit","<div class=""stimulus"">6</div>","null","1,8,3,1,9,5,7,0,1,8,4,9,6","","","6",""
"survey-html-form-autofocus","89","227766","0.0-41.0-24.0-24.0","SO1PRESH","PRE","","3749.400001525879","{""recall"":""396""}","recall","","","1831957018496","396","496","","false"
"html-keyboard-response","90","229229","0.0-41.0-24.0-25.0-0.0","SO1PRESH","PRE","","null","","fixation cross","<div class='stimulus'>+</div>","null","","","","",""
"html-keyboard-response","91","231017","0.0-41.0-24.0-25.0-1.0","SO1PRESH","PRE","","null","","display digit","<div class=""stimulus"">8</div>","null","8,7,4,6,0,5,9,4","","","8",""
"html-keyboard-response","92","232806","0.0-41.0-24.0-25.0-2.0","SO1PRESH","PRE","","null","","display digit","<div class=""stimulus"">7</div>","null","8,7,4,6,0,5,9,4","","","7",""
"html-keyboard-response","93","234594","0.0-41.0-24.0-25.0-3.0","SO1PRESH","PRE","","null","","display digit","<div class=""stimulus"">4</div>","null","8,7,4,6,0,5,9,4","","","4",""
"html-keyboard-response","94","236382","0.0-41.0-24.0-25.0-4.0","SO1PRESH","PRE","","null","","display digit","<div class=""stimulus"">6</div>","null","8,7,4,6,0,5,9,4","","","6",""
"html-keyboard-response","95","238171","0.0-41.0-24.0-25.0-5.0","SO1PRESH","PRE","","null","","display digit","<div class=""stimulus"">0</div>","null","8,7,4,6,0,5,9,4","","","0",""
"html-keyboard-response","96","239960","0.0-41.0-24.0-25.0-6.0","SO1PRESH","PRE","","null","","display digit","<div class=""stimulus"">5</div>","null","8,7,4,6,0,5,9,4","","","5",""
"html-keyboard-response","97","241749","0.0-41.0-24.0-25.0-7.0","SO1PRESH","PRE","","null","","display digit","<div class=""stimulus"">9</div>","null","8,7,4,6,0,5,9,4","","","9",""
"html-keyboard-response","98","243538","0.0-41.0-24.0-25.0-8.0","SO1PRESH","PRE","","null","","display digit","<div class=""stimulus"">4</div>","null","8,7,4,6,0,5,9,4","","","4",""
"survey-html-form-autofocus","99","249767","0.0-41.0-24.0-25.0-9.0","SO1PRESH","PRE","","5564.699996948242","{""recall"":""9430""}","recall","","","87460594","9430","0594","","false"
"html-keyboard-response","100","251231","0.0-41.0-24.0-25.0-10.0","SO1PRESH","PRE","","null","","fixation cross","<div class='stimulus'>+</div>","null","","","","",""
"html-keyboard-response","101","253021","0.0-41.0-24.0-25.0-11.0","SO1PRESH","PRE","","null","","display digit","<div class=""stimulus"">6</div>","null","6,3,1,7","","","6",""
"html-keyboard-response","102","254809","0.0-41.0-24.0-25.0-12.0","SO1PRESH","PRE","","null","","display digit","<div class=""stimulus"">3</div>","null","6,3,1,7","","","3",""
"html-keyboard-response","103","256598","0.0-41.0-24.0-25.0-13.0","SO1PRESH","PRE","","null","","display digit","<div class=""stimulus"">1</div>","null","6,3,1,7","","","1",""
"html-keyboard-response","104","258388","0.0-41.0-24.0-25.0-14.0","SO1PRESH","PRE","","null","","display digit","<div class=""stimulus"">7</div>","null","6,3,1,7","","","7",""
"survey-html-form-autofocus","105","264453","0.0-41.0-24.0-25.0-15.0","SO1PRESH","PRE","","5401.200004577637","{""recall"":""6317""}","recall","","","6317","6317","6317","","true"
"html-keyboard-response","106","265918","0.0-41.0-24.0-25.0-16.0-0.0","SO1PRESH","PRE","","null","","fixation cross","<div class='stimulus'>+</div>","null","","","","",""
"html-keyboard-response","107","267708","0.0-41.0-24.0-25.0-16.0-1.0","SO1PRESH","PRE","","null","","display digit","<div class=""stimulus"">3</div>","null","3,1,8,7,9,4,6,0,4,9,8,4","","","3",""
"html-keyboard-response","108","269497","0.0-41.0-24.0-25.0-16.0-2.0","SO1PRESH","PRE","","null","","display digit","<div class=""stimulus"">1</div>","null","3,1,8,7,9,4,6,0,4,9,8,4","","","1",""
"html-keyboard-response","109","271285","0.0-41.0-24.0-25.0-16.0-3.0","SO1PRESH","PRE","","null","","display digit","<div class=""stimulus"">8</div>","null","3,1,8,7,9,4,6,0,4,9,8,4","","","8",""
"html-keyboard-response","110","273074","0.0-41.0-24.0-25.0-16.0-4.0","SO1PRESH","PRE","","null","","display digit","<div class=""stimulus"">7</div>","null","3,1,8,7,9,4,6,0,4,9,8,4","","","7",""
"html-keyboard-response","111","274862","0.0-41.0-24.0-25.0-16.0-5.0","SO1PRESH","PRE","","null","","display digit","<div class=""stimulus"">9</div>","null","3,1,8,7,9,4,6,0,4,9,8,4","","","9",""
"html-keyboard-response","112","276651","0.0-41.0-24.0-25.0-16.0-6.0","SO1PRESH","PRE","","null","","display digit","<div class=""stimulus"">4</div>","null","3,1,8,7,9,4,6,0,4,9,8,4","","","4",""
"html-keyboard-response","113","278441","0.0-41.0-24.0-25.0-16.0-7.0","SO1PRESH","PRE","","null","","display digit","<div class=""stimulus"">6</div>","null","3,1,8,7,9,4,6,0,4,9,8,4","","","6",""
"html-keyboard-response","114","280230","0.0-41.0-24.0-25.0-16.0-8.0","SO1PRESH","PRE","","null","","display digit","<div class=""stimulus"">0</div>","null","3,1,8,7,9,4,6,0,4,9,8,4","","","0",""
"html-keyboard-response","115","282019","0.0-41.0-24.0-25.0-16.0-9.0","SO1PRESH","PRE","","null","","display digit","<div class=""stimulus"">4</div>","null","3,1,8,7,9,4,6,0,4,9,8,4","","","4",""
"html-keyboard-response","116","283808","0.0-41.0-24.0-25.0-16.0-10.0","SO1PRESH","PRE","","null","","display digit","<div class=""stimulus"">9</div>","null","3,1,8,7,9,4,6,0,4,9,8,4","","","9",""
"html-keyboard-response","117","285596","0.0-41.0-24.0-25.0-16.0-11.0","SO1PRESH","PRE","","null","","display digit","<div class=""stimulus"">8</div>","null","3,1,8,7,9,4,6,0,4,9,8,4","","","8",""
"html-keyboard-response","118","287384","0.0-41.0-24.0-25.0-16.0-12.0","SO1PRESH","PRE","","null","","display digit","<div class=""stimulus"">4</div>","null","3,1,8,7,9,4,6,0,4,9,8,4","","","4",""
"survey-html-form-autofocus","119","297315","0.0-41.0-24.0-25.0-16.0-13.0","SO1PRESH","PRE","","9266.900001525879","{""recall"":""6564""}","recall","","","318794604984","6564","04984","","false"
"html-keyboard-response","120","298779","0.0-41.0-24.0-25.0-16.0-14.0","SO1PRESH","PRE","","null","","fixation cross","<div class='stimulus'>+</div>","null","","","","",""
"html-keyboard-response","121","300568","0.0-41.0-24.0-25.0-16.0-15.0","SO1PRESH","PRE","","null","","display digit","<div class=""stimulus"">1</div>","null","1,0,6,0,8,2,0","","","1",""
"html-keyboard-response","122","302357","0.0-41.0-24.0-25.0-16.0-16.0","SO1PRESH","PRE","","null","","display digit","<div class=""stimulus"">0</div>","null","1,0,6,0,8,2,0","","","0",""
"html-keyboard-response","123","304145","0.0-41.0-24.0-25.0-16.0-17.0","SO1PRESH","PRE","","null","","display digit","<div class=""stimulus"">6</div>","null","1,0,6,0,8,2,0","","","6",""
"html-keyboard-response","124","305934","0.0-41.0-24.0-25.0-16.0-18.0","SO1PRESH","PRE","","null","","display digit","<div class=""stimulus"">0</div>","null","1,0,6,0,8,2,0","","","0",""
"html-keyboard-response","125","307722","0.0-41.0-24.0-25.0-16.0-19.0","SO1PRESH","PRE","","null","","display digit","<div class=""stimulus"">8</div>","null","1,0,6,0,8,2,0","","","8",""
"html-keyboard-response","126","309511","0.0-41.0-24.0-25.0-16.0-20.0","SO1PRESH","PRE","","null","","display digit","<div class=""stimulus"">2</div>","null","1,0,6,0,8,2,0","","","2",""
"html-keyboard-response","127","311300","0.0-41.0-24.0-25.0-16.0-21.0","SO1PRESH","PRE","","null","","display digit","<div class=""stimulus"">0</div>","null","1,0,6,0,8,2,0","","","0",""
"survey-html-form-autofocus","128","318799","0.0-41.0-24.0-25.0-16.0-22.0","SO1PRESH","PRE","","6834.400001525879","{""recall"":""6720""}","recall","","","1060820","6720","60820","","false"
"html-keyboard-response","129","325235","0.0-42.0","SO1PRESH","PRE","","5772.200004577637","","","<p>End of the experiment.<br/>			   		You reached level 5 and your					total score is 6.</p>					<p class=""important"">PRESS SPACE TO FINISH THE EXPERIMENT.</p>","32","","","","",""
"fullscreen","130","326250","0.0-43.0","SO1PRESH","PRE","true","","","","","","","","","",""
