instruct.started,instruct.stopped,key_resp_instr.keys,key_resp_instr.rt,key_resp_instr.duration,participant,session,date,expName,psychopyVersion,OS,frameRate,practice.started,practice.stopped,practicetrialskeys.keys,practicetrialskeys.rt,practicetrialskeys.duration,practicetrialss.thisRepN,practicetrialss.thisTrialN,practicetrialss.thisN,practicetrialss.thisIndex,practicetrialss.ran,text,letterColor,corrAns,congruent,RUready.started,RUready.stopped,key_resp_2.keys,key_resp_2.rt,key_resp_2.duration,trials.started,trials.stopped,key_resp_trials.keys,key_resp_trials.corr,key_resp_trials.rt,key_resp_trials.duration,trials_2.thisRepN,trials_2.thisTrialN,trials_2.thisN,trials_2.thisIndex,trials_2.ran,thanks.started,thanks.stopped,key_resp.keys,key_resp.rt,key_resp.duration
0.000300003,16.5449,y,15.5161,,B13PRETR,001,2025-02-18_17h03.42.305,strooptdcs,2024.2.1,MacIntel,57.80346821,,,,,,,,,,,,,,,,,,,,,,,,,,,,,,,,,,,
,,,,,B13PRETR,001,2025-02-18_17h03.42.305,strooptdcs,2024.2.1,MacIntel,57.80346821,16.5625,18.0957,y,1.099899994,,0,0,0,0,1,yellow,yellow,y,yes,,,,,,,,,,,,,,,,,,,,,
,,,,,B13PRETR,001,2025-02-18_17h03.42.305,strooptdcs,2024.2.1,MacIntel,57.80346821,18.0973,20.6288,b,2.096400002,,0,1,1,1,1,green,blue,b,no,,,,,,,,,,,,,,,,,,,,,
,,,,,B13PRETR,001,2025-02-18_17h03.42.305,strooptdcs,2024.2.1,MacIntel,57.80346821,20.6295,25.0455,g,3.9915,,0,2,2,2,1,green,green,g,yes,,,,,,,,,,,,,,,,,,,,,
,,,,,B13PRETR,001,2025-02-18_17h03.42.305,strooptdcs,2024.2.1,MacIntel,57.80346821,25.047,26.9124,g,1.430200005,,0,3,3,3,1,red,green,g,no,,,,,,,,,,,,,,,,,,,,,
,,,,,B13PRETR,001,2025-02-18_17h03.42.305,strooptdcs,2024.2.1,MacIntel,57.80346821,26.91410001,28.7279,y,1.3795,,0,4,4,4,1,blue,yellow,y,no,,,,,,,,,,,,,,,,,,,,,
,,,,,B13PRETR,001,2025-02-18_17h03.42.305,strooptdcs,2024.2.1,MacIntel,57.80346821,,,,,,,,,,,,,,,28.7284,34.0295,y,4.186199997,,,,,,,,,,,,,,,,,
,,,,,B13PRETR,001,2025-02-18_17h03.42.305,strooptdcs,2024.2.1,MacIntel,57.80346821,,,,,,,,,,,red,red,r,yes,,,,,,34.04260001,36.413,r,1,1.978599998,,0,0,0,0,1,,,,,
,,,,,B13PRETR,001,2025-02-18_17h03.42.305,strooptdcs,2024.2.1,MacIntel,57.80346821,,,,,,,,,,,blue,blue,b,yes,,,,,,36.41460001,38.1459,b,1,1.337099998,,0,1,1,1,1,,,,,
,,,,,B13PRETR,001,2025-02-18_17h03.42.305,strooptdcs,2024.2.1,MacIntel,57.80346821,,,,,,,,,,,yellow,green,g,no,,,,,,38.1473,39.8627,g,1,1.322199997,,0,2,2,2,1,,,,,
,,,,,B13PRETR,001,2025-02-18_17h03.42.305,strooptdcs,2024.2.1,MacIntel,57.80346821,,,,,,,,,,,blue,green,g,no,,,,,,39.8637,41.4793,g,1,1.2175,,0,3,3,3,1,,,,,
,,,,,B13PRETR,001,2025-02-18_17h03.42.305,strooptdcs,2024.2.1,MacIntel,57.80346821,,,,,,,,,,,green,green,g,yes,,,,,,41.4807,45.82960001,g,1,3.950800003,,0,4,4,4,1,,,,,
,,,,,B13PRETR,001,2025-02-18_17h03.42.305,strooptdcs,2024.2.1,MacIntel,57.80346821,,,,,,,,,,,blue,red,r,no,,,,,,45.831,47.3963,r,1,1.166699997,,0,5,5,5,1,,,,,
,,,,,B13PRETR,001,2025-02-18_17h03.42.305,strooptdcs,2024.2.1,MacIntel,57.80346821,,,,,,,,,,,yellow,green,g,no,,,,,,47.3975,49.9463,g,1,2.150299995,,0,6,6,6,1,,,,,
,,,,,B13PRETR,001,2025-02-18_17h03.42.305,strooptdcs,2024.2.1,MacIntel,57.80346821,,,,,,,,,,,blue,green,g,no,,,,,,49.9475,52.3797,g,1,2.0345,,0,7,7,7,1,,,,,
,,,,,B13PRETR,001,2025-02-18_17h03.42.305,strooptdcs,2024.2.1,MacIntel,57.80346821,,,,,,,,,,,green,green,g,yes,,,,,,52.3808,54.0799,g,1,1.303799995,,0,8,8,8,1,,,,,
,,,,,B13PRETR,001,2025-02-18_17h03.42.305,strooptdcs,2024.2.1,MacIntel,57.80346821,,,,,,,,,,,yellow,yellow,y,yes,,,,,,54.0812,55.5623,y,1,1.084699997,,0,9,9,9,1,,,,,
,,,,,B13PRETR,001,2025-02-18_17h03.42.305,strooptdcs,2024.2.1,MacIntel,57.80346821,,,,,,,,,,,yellow,yellow,y,yes,,,,,,55.563,56.6632,y,1,0.701300003,,0,10,10,10,1,,,,,
,,,,,B13PRETR,001,2025-02-18_17h03.42.305,strooptdcs,2024.2.1,MacIntel,57.80346821,,,,,,,,,,,green,green,g,yes,,,,,,56.66410001,57.8469,g,1,0.796400002,,0,11,11,11,1,,,,,
,,,,,B13PRETR,001,2025-02-18_17h03.42.305,strooptdcs,2024.2.1,MacIntel,57.80346821,,,,,,,,,,,yellow,blue,b,no,,,,,,57.8479,59.3135,b,1,1.070699997,,0,12,12,12,1,,,,,
,,,,,B13PRETR,001,2025-02-18_17h03.42.305,strooptdcs,2024.2.1,MacIntel,57.80346821,,,,,,,,,,,green,red,r,no,,,,,,59.31460001,61.9965,r,1,2.293399994,,0,13,13,13,1,,,,,
,,,,,B13PRETR,001,2025-02-18_17h03.42.305,strooptdcs,2024.2.1,MacIntel,57.80346821,,,,,,,,,,,red,red,r,yes,,,,,,61.9974,63.2635,r,1,0.8795,,0,14,14,14,1,,,,,
,,,,,B13PRETR,001,2025-02-18_17h03.42.305,strooptdcs,2024.2.1,MacIntel,57.80346821,,,,,,,,,,,blue,blue,b,yes,,,,,,63.2648,64.8967,b,1,1.244,,0,15,15,15,1,,,,,
,,,,,B13PRETR,001,2025-02-18_17h03.42.305,strooptdcs,2024.2.1,MacIntel,57.80346821,,,,,,,,,,,red,yellow,y,no,,,,,,64.8975,66.4634,y,1,1.1775,,0,16,16,16,1,,,,,
,,,,,B13PRETR,001,2025-02-18_17h03.42.305,strooptdcs,2024.2.1,MacIntel,57.80346821,,,,,,,,,,,red,yellow,y,no,,,,,,66.4637,67.5633,y,1,0.699699997,,0,17,17,17,1,,,,,
,,,,,B13PRETR,001,2025-02-18_17h03.42.305,strooptdcs,2024.2.1,MacIntel,57.80346821,,,,,,,,,,,green,yellow,y,no,,,,,,67.564,68.8972,y,1,0.946200005,,0,18,18,18,1,,,,,
,,,,,B13PRETR,001,2025-02-18_17h03.42.305,strooptdcs,2024.2.1,MacIntel,57.80346821,,,,,,,,,,,blue,yellow,y,no,,,,,,68.8982,70.0637,y,1,0.77,,0,19,19,19,1,,,,,
,,,,,B13PRETR,001,2025-02-18_17h03.42.305,strooptdcs,2024.2.1,MacIntel,57.80346821,,,,,,,,,,,yellow,yellow,y,yes,,,,,,70.0649,70.8639,y,1,0.4135,,0,20,20,20,1,,,,,
,,,,,B13PRETR,001,2025-02-18_17h03.42.305,strooptdcs,2024.2.1,MacIntel,57.80346821,,,,,,,,,,,red,red,r,yes,,,,,,70.865,72.1134,r,1,0.850400002,,0,21,21,21,1,,,,,
,,,,,B13PRETR,001,2025-02-18_17h03.42.305,strooptdcs,2024.2.1,MacIntel,57.80346821,,,,,,,,,,,green,green,g,yes,,,,,,72.1144,73.3962,g,1,0.895300003,,0,22,22,22,1,,,,,
,,,,,B13PRETR,001,2025-02-18_17h03.42.305,strooptdcs,2024.2.1,MacIntel,57.80346821,,,,,,,,,,,green,green,g,yes,,,,,,73.3967,74.19610001,g,1,0.4005,,0,23,23,23,1,,,,,
,,,,,B13PRETR,001,2025-02-18_17h03.42.305,strooptdcs,2024.2.1,MacIntel,57.80346821,,,,,,,,,,,blue,blue,b,yes,,,,,,74.1969,75.7305,b,1,1.133200005,,0,24,24,24,1,,,,,
,,,,,B13PRETR,001,2025-02-18_17h03.42.305,strooptdcs,2024.2.1,MacIntel,57.80346821,,,,,,,,,,,blue,green,g,no,,,,,,75.73110001,77.0805,g,1,0.950099998,,0,25,25,25,1,,,,,
,,,,,B13PRETR,001,2025-02-18_17h03.42.305,strooptdcs,2024.2.1,MacIntel,57.80346821,,,,,,,,,,,yellow,red,r,no,,,,,,77.08160001,78.5803,r,1,1.113199997,,0,26,26,26,1,,,,,
,,,,,B13PRETR,001,2025-02-18_17h03.42.305,strooptdcs,2024.2.1,MacIntel,57.80346821,,,,,,,,,,,blue,blue,b,yes,,,,,,78.5817,81.4298,b,1,2.450299995,,0,27,27,27,1,,,,,
,,,,,B13PRETR,001,2025-02-18_17h03.42.305,strooptdcs,2024.2.1,MacIntel,57.80346821,,,,,,,,,,,yellow,yellow,y,yes,,,,,,81.4308,82.5475,y,1,0.718300003,,0,28,28,28,1,,,,,
,,,,,B13PRETR,001,2025-02-18_17h03.42.305,strooptdcs,2024.2.1,MacIntel,57.80346821,,,,,,,,,,,red,yellow,y,no,,,,,,82.54860001,83.9965,r,0,1.050400002,,0,29,29,29,1,,,,,
,,,,,B13PRETR,001,2025-02-18_17h03.42.305,strooptdcs,2024.2.1,MacIntel,57.80346821,,,,,,,,,,,yellow,yellow,y,yes,,,,,,83.9974,84.981,y,1,0.5955,,0,30,30,30,1,,,,,
,,,,,B13PRETR,001,2025-02-18_17h03.42.305,strooptdcs,2024.2.1,MacIntel,57.80346821,,,,,,,,,,,green,blue,b,no,,,,,,84.98210001,86.2977,g,0,0.917899994,,0,31,31,31,1,,,,,
,,,,,B13PRETR,001,2025-02-18_17h03.42.305,strooptdcs,2024.2.1,MacIntel,57.80346821,,,,,,,,,,,green,green,g,yes,,,,,,86.29810001,87.6143,g,1,0.928200005,,0,32,32,32,1,,,,,
,,,,,B13PRETR,001,2025-02-18_17h03.42.305,strooptdcs,2024.2.1,MacIntel,57.80346821,,,,,,,,,,,red,green,g,no,,,,,,87.61510001,88.7143,g,1,0.700599998,,0,33,33,33,1,,,,,
,,,,,B13PRETR,001,2025-02-18_17h03.42.305,strooptdcs,2024.2.1,MacIntel,57.80346821,,,,,,,,,,,blue,yellow,y,no,,,,,,88.7152,90.46360001,y,1,1.354299995,,0,34,34,34,1,,,,,
,,,,,B13PRETR,001,2025-02-18_17h03.42.305,strooptdcs,2024.2.1,MacIntel,57.80346821,,,,,,,,,,,red,blue,b,no,,,,,,90.4649,92.4312,b,1,1.567799995,,0,35,35,35,1,,,,,
,,,,,B13PRETR,001,2025-02-18_17h03.42.305,strooptdcs,2024.2.1,MacIntel,57.80346821,,,,,,,,,,,red,green,g,no,,,,,,92.43210001,94.8469,g,1,2.022900002,,0,36,36,36,1,,,,,
,,,,,B13PRETR,001,2025-02-18_17h03.42.305,strooptdcs,2024.2.1,MacIntel,57.80346821,,,,,,,,,,,green,red,r,no,,,,,,94.8483,96.0979,r,1,0.851700005,,0,37,37,37,1,,,,,
,,,,,B13PRETR,001,2025-02-18_17h03.42.305,strooptdcs,2024.2.1,MacIntel,57.80346821,,,,,,,,,,,red,red,r,yes,,,,,,96.0989,96.8814,r,1,0.3955,,0,38,38,38,1,,,,,
,,,,,B13PRETR,001,2025-02-18_17h03.42.305,strooptdcs,2024.2.1,MacIntel,57.80346821,,,,,,,,,,,blue,blue,b,yes,,,,,,96.88260001,98.1313,b,1,0.854199997,,0,39,39,39,1,,,,,
,,,,,B13PRETR,001,2025-02-18_17h03.42.305,strooptdcs,2024.2.1,MacIntel,57.80346821,,,,,,,,,,,green,green,g,yes,,,,,,98.13260001,99.3313,g,1,0.811799995,,0,40,40,40,1,,,,,
,,,,,B13PRETR,001,2025-02-18_17h03.42.305,strooptdcs,2024.2.1,MacIntel,57.80346821,,,,,,,,,,,green,yellow,y,no,,,,,,99.332,100.6149,y,1,0.883900002,,0,41,41,41,1,,,,,
,,,,,B13PRETR,001,2025-02-18_17h03.42.305,strooptdcs,2024.2.1,MacIntel,57.80346821,,,,,,,,,,,yellow,yellow,y,yes,,,,,,100.6162,101.6135,y,1,0.598900002,,0,42,42,42,1,,,,,
,,,,,B13PRETR,001,2025-02-18_17h03.42.305,strooptdcs,2024.2.1,MacIntel,57.80346821,,,,,,,,,,,yellow,yellow,y,yes,,,,,,101.6137,102.3482,y,1,0.346400002,,0,43,43,43,1,,,,,
,,,,,B13PRETR,001,2025-02-18_17h03.42.305,strooptdcs,2024.2.1,MacIntel,57.80346821,,,,,,,,,,,blue,blue,b,yes,,,,,,102.3492,103.4815,g,0,0.737699997,,0,44,44,44,1,,,,,
,,,,,B13PRETR,001,2025-02-18_17h03.42.305,strooptdcs,2024.2.1,MacIntel,57.80346821,,,,,,,,,,,yellow,red,r,no,,,,,,103.483,105.2473,r,1,1.367599998,,0,45,45,45,1,,,,,
,,,,,B13PRETR,001,2025-02-18_17h03.42.305,strooptdcs,2024.2.1,MacIntel,57.80346821,,,,,,,,,,,green,yellow,y,no,,,,,,105.2487,107.1141,y,1,1.4785,,0,46,46,46,1,,,,,
,,,,,B13PRETR,001,2025-02-18_17h03.42.305,strooptdcs,2024.2.1,MacIntel,57.80346821,,,,,,,,,,,red,red,r,yes,,,,,,107.1154,108.1984,r,1,0.682199997,,0,47,47,47,1,,,,,
,,,,,B13PRETR,001,2025-02-18_17h03.42.305,strooptdcs,2024.2.1,MacIntel,57.80346821,,,,,,,,,,,yellow,yellow,y,yes,,,,,,108.1995,109.8811,y,1,1.294399994,,0,48,48,48,1,,,,,
,,,,,B13PRETR,001,2025-02-18_17h03.42.305,strooptdcs,2024.2.1,MacIntel,57.80346821,,,,,,,,,,,blue,red,r,no,,,,,,109.8821,111.2474,b,0,0.9775,,0,49,49,49,1,,,,,
,,,,,B13PRETR,001,2025-02-18_17h03.42.305,strooptdcs,2024.2.1,MacIntel,57.80346821,,,,,,,,,,,blue,blue,b,yes,,,,,,111.248,113.6977,b,1,2.050200005,,0,50,50,50,1,,,,,
,,,,,B13PRETR,001,2025-02-18_17h03.42.305,strooptdcs,2024.2.1,MacIntel,57.80346821,,,,,,,,,,,red,blue,b,no,,,,,,113.6991,115.0645,b,1,0.968299995,,0,51,51,51,1,,,,,
,,,,,B13PRETR,001,2025-02-18_17h03.42.305,strooptdcs,2024.2.1,MacIntel,57.80346821,,,,,,,,,,,yellow,red,r,no,,,,,,115.0656,117.4643,r,1,1.999300003,,0,52,52,52,1,,,,,
,,,,,B13PRETR,001,2025-02-18_17h03.42.305,strooptdcs,2024.2.1,MacIntel,57.80346821,,,,,,,,,,,green,blue,b,no,,,,,,117.4654,120.8812,b,1,3.016900002,,0,53,53,53,1,,,,,
,,,,,B13PRETR,001,2025-02-18_17h03.42.305,strooptdcs,2024.2.1,MacIntel,57.80346821,,,,,,,,,,,yellow,blue,b,no,,,,,,120.8823,122.1978,b,1,0.916800003,,0,54,54,54,1,,,,,
,,,,,B13PRETR,001,2025-02-18_17h03.42.305,strooptdcs,2024.2.1,MacIntel,57.80346821,,,,,,,,,,,blue,blue,b,yes,,,,,,122.1988,123.1322,b,1,0.533700005,,0,55,55,55,1,,,,,
,,,,,B13PRETR,001,2025-02-18_17h03.42.305,strooptdcs,2024.2.1,MacIntel,57.80346821,,,,,,,,,,,red,red,r,yes,,,,,,123.1332,124.2657,r,1,0.732599998,,0,56,56,56,1,,,,,
,,,,,B13PRETR,001,2025-02-18_17h03.42.305,strooptdcs,2024.2.1,MacIntel,57.80346821,,,,,,,,,,,red,green,g,no,,,,,,124.2664,125.6147,g,1,0.953,,0,57,57,57,1,,,,,
,,,,,B13PRETR,001,2025-02-18_17h03.42.305,strooptdcs,2024.2.1,MacIntel,57.80346821,,,,,,,,,,,blue,red,r,no,,,,,,125.6158,127.832,r,1,1.816300003,,0,58,58,58,1,,,,,
,,,,,B13PRETR,001,2025-02-18_17h03.42.305,strooptdcs,2024.2.1,MacIntel,57.80346821,,,,,,,,,,,red,blue,b,no,,,,,,127.8331,130.7659,b,1,2.534800003,,0,59,59,59,1,,,,,
,,,,,B13PRETR,001,2025-02-18_17h03.42.305,strooptdcs,2024.2.1,MacIntel,57.80346821,,,,,,,,,,,red,red,r,yes,,,,,,130.7666,132.016,r,1,0.848899994,,0,60,60,60,1,,,,,
,,,,,B13PRETR,001,2025-02-18_17h03.42.305,strooptdcs,2024.2.1,MacIntel,57.80346821,,,,,,,,,,,red,red,r,yes,,,,,,132.0164,132.9482,r,1,0.533799995,,0,61,61,61,1,,,,,
,,,,,B13PRETR,001,2025-02-18_17h03.42.305,strooptdcs,2024.2.1,MacIntel,57.80346821,,,,,,,,,,,yellow,blue,b,no,,,,,,132.9494,134.2992,b,1,0.949800003,,0,62,62,62,1,,,,,
,,,,,B13PRETR,001,2025-02-18_17h03.42.305,strooptdcs,2024.2.1,MacIntel,57.80346821,,,,,,,,,,,blue,blue,b,yes,,,,,,134.3,135.2821,b,1,0.582199997,,0,63,63,63,1,,,,,
,,,,,B13PRETR,001,2025-02-18_17h03.42.305,strooptdcs,2024.2.1,MacIntel,57.80346821,,,,,,,,,,,blue,yellow,y,no,,,,,,135.2826,136.6162,y,1,0.945599998,,0,64,64,64,1,,,,,
,,,,,B13PRETR,001,2025-02-18_17h03.42.305,strooptdcs,2024.2.1,MacIntel,57.80346821,,,,,,,,,,,green,green,g,yes,,,,,,136.6172,138.0326,g,1,1.028199997,,0,65,65,65,1,,,,,
,,,,,B13PRETR,001,2025-02-18_17h03.42.305,strooptdcs,2024.2.1,MacIntel,57.80346821,,,,,,,,,,,green,blue,b,no,,,,,,138.0332,139.5828,b,1,1.152,,0,66,66,66,1,,,,,
,,,,,B13PRETR,001,2025-02-18_17h03.42.305,strooptdcs,2024.2.1,MacIntel,57.80346821,,,,,,,,,,,green,green,g,yes,,,,,,139.5833,141.0828,g,1,1.100599998,,0,67,67,67,1,,,,,
,,,,,B13PRETR,001,2025-02-18_17h03.42.305,strooptdcs,2024.2.1,MacIntel,57.80346821,,,,,,,,,,,red,red,r,yes,,,,,,141.0838,142.283,r,1,0.812099998,,0,68,68,68,1,,,,,
,,,,,B13PRETR,001,2025-02-18_17h03.42.305,strooptdcs,2024.2.1,MacIntel,57.80346821,,,,,,,,,,,yellow,yellow,y,yes,,,,,,142.284,143.433,y,1,0.761699997,,0,69,69,69,1,,,,,
,,,,,B13PRETR,001,2025-02-18_17h03.42.305,strooptdcs,2024.2.1,MacIntel,57.80346821,,,,,,,,,,,yellow,green,g,no,,,,,,143.4335,144.699,g,1,0.866800003,,0,70,70,70,1,,,,,
,,,,,B13PRETR,001,2025-02-18_17h03.42.305,strooptdcs,2024.2.1,MacIntel,57.80346821,,,,,,,,,,,green,red,r,no,,,,,,144.7,146.433,r,1,1.334600006,,0,71,71,71,1,,,,,
,,,,,B13PRETR,001,2025-02-18_17h03.42.305,strooptdcs,2024.2.1,MacIntel,57.80346821,,,,,,,,,,,,,,,,,,,,,,,,,,,,,,,146.4333,147.8833,y,0.828,
