instruct.started,instruct.stopped,key_resp_instr.keys,key_resp_instr.rt,key_resp_instr.duration,participant,session,date,expName,psychopyVersion,OS,frameRate,practice.started,practice.stopped,practicetrialskeys.keys,practicetrialskeys.rt,practicetrialskeys.duration,practicetrialss.thisRepN,practicetrialss.thisTrialN,practicetrialss.thisN,practicetrialss.thisIndex,practicetrialss.ran,text,letterColor,corrAns,congruent,RUready.started,RUready.stopped,key_resp_2.keys,key_resp_2.rt,key_resp_2.duration,trials.started,trials.stopped,key_resp_trials.keys,key_resp_trials.corr,key_resp_trials.rt,key_resp_trials.duration,trials_2.thisRepN,trials_2.thisTrialN,trials_2.thisN,trials_2.thisIndex,trials_2.ran,thanks.started,thanks.stopped,key_resp.keys,key_resp.rt,key_resp.duration
0.000300003,19.8749,y,18.8607,,B04PRESH,001,2024-10-30_16h46.25.961,strooptdcs,2024.2.1,MacIntel,59.17159763,,,,,,,,,,,,,,,,,,,,,,,,,,,,,,,,,,,
,,,,,B04PRESH,001,2024-10-30_16h46.25.961,strooptdcs,2024.2.1,MacIntel,59.17159763,19.8983,23.1916,y,2.863799995,,0,0,0,0,1,yellow,yellow,y,yes,,,,,,,,,,,,,,,,,,,,,
,,,,,B04PRESH,001,2024-10-30_16h46.25.961,strooptdcs,2024.2.1,MacIntel,59.17159763,23.1934,25.9904,b,2.362899994,,0,1,1,1,1,green,blue,b,no,,,,,,,,,,,,,,,,,,,,,
,,,,,B04PRESH,001,2024-10-30_16h46.25.961,strooptdcs,2024.2.1,MacIntel,59.17159763,25.9912,27.8249,g,1.414800003,,0,2,2,2,1,green,green,g,yes,,,,,,,,,,,,,,,,,,,,,
,,,,,B04PRESH,001,2024-10-30_16h46.25.961,strooptdcs,2024.2.1,MacIntel,59.17159763,27.8261,29.7913,g,1.531299995,,0,3,3,3,1,red,green,g,no,,,,,,,,,,,,,,,,,,,,,
,,,,,B04PRESH,001,2024-10-30_16h46.25.961,strooptdcs,2024.2.1,MacIntel,59.17159763,29.7925,31.9749,y,1.750800003,,0,4,4,4,1,blue,yellow,y,no,,,,,,,,,,,,,,,,,,,,,
,,,,,B04PRESH,001,2024-10-30_16h46.25.961,strooptdcs,2024.2.1,MacIntel,59.17159763,,,,,,,,,,,,,,,31.9755,34.892,y,1.795199997,,,,,,,,,,,,,,,,,
,,,,,B04PRESH,001,2024-10-30_16h46.25.961,strooptdcs,2024.2.1,MacIntel,59.17159763,,,,,,,,,,,red,red,r,yes,,,,,,34.911,36.9422,r,1,1.619599998,,0,0,0,0,1,,,,,
,,,,,B04PRESH,001,2024-10-30_16h46.25.961,strooptdcs,2024.2.1,MacIntel,59.17159763,,,,,,,,,,,blue,blue,b,yes,,,,,,36.9442,38.6251,b,1,1.286300003,,0,1,1,1,1,,,,,
,,,,,B04PRESH,001,2024-10-30_16h46.25.961,strooptdcs,2024.2.1,MacIntel,59.17159763,,,,,,,,,,,yellow,green,g,no,,,,,,38.6264,42.0584,g,1,3.043200005,,0,2,2,2,1,,,,,
,,,,,B04PRESH,001,2024-10-30_16h46.25.961,strooptdcs,2024.2.1,MacIntel,59.17159763,,,,,,,,,,,blue,green,g,no,,,,,,42.0593,44.3254,g,1,1.878900002,,0,3,3,3,1,,,,,
,,,,,B04PRESH,001,2024-10-30_16h46.25.961,strooptdcs,2024.2.1,MacIntel,59.17159763,,,,,,,,,,,green,green,g,yes,,,,,,44.3264,45.8253,g,1,1.111700005,,0,4,4,4,1,,,,,
,,,,,B04PRESH,001,2024-10-30_16h46.25.961,strooptdcs,2024.2.1,MacIntel,59.17159763,,,,,,,,,,,blue,red,r,no,,,,,,45.8267,49.642,r,1,3.417599998,,0,5,5,5,1,,,,,
,,,,,B04PRESH,001,2024-10-30_16h46.25.961,strooptdcs,2024.2.1,MacIntel,59.17159763,,,,,,,,,,,yellow,green,g,no,,,,,,49.6433,52.2422,g,1,2.211400002,,0,6,6,6,1,,,,,
,,,,,B04PRESH,001,2024-10-30_16h46.25.961,strooptdcs,2024.2.1,MacIntel,59.17159763,,,,,,,,,,,blue,green,g,no,,,,,,52.2435,53.8421,g,1,1.200399994,,0,7,7,7,1,,,,,
,,,,,B04PRESH,001,2024-10-30_16h46.25.961,strooptdcs,2024.2.1,MacIntel,59.17159763,,,,,,,,,,,green,green,g,yes,,,,,,53.843,55.2424,g,1,1.004199997,,0,8,8,8,1,,,,,
,,,,,B04PRESH,001,2024-10-30_16h46.25.961,strooptdcs,2024.2.1,MacIntel,59.17159763,,,,,,,,,,,yellow,yellow,y,yes,,,,,,55.2437,58.9424,y,1,3.313299995,,0,9,9,9,1,,,,,
,,,,,B04PRESH,001,2024-10-30_16h46.25.961,strooptdcs,2024.2.1,MacIntel,59.17159763,,,,,,,,,,,yellow,yellow,y,yes,,,,,,58.9431,60.3426,y,1,1.002300003,,0,10,10,10,1,,,,,
,,,,,B04PRESH,001,2024-10-30_16h46.25.961,strooptdcs,2024.2.1,MacIntel,59.17159763,,,,,,,,,,,green,green,g,yes,,,,,,60.3438,62.676,g,1,1.935799995,,0,11,11,11,1,,,,,
,,,,,B04PRESH,001,2024-10-30_16h46.25.961,strooptdcs,2024.2.1,MacIntel,59.17159763,,,,,,,,,,,yellow,blue,b,no,,,,,,62.6773,64.4759,b,1,1.401299995,,0,12,12,12,1,,,,,
,,,,,B04PRESH,001,2024-10-30_16h46.25.961,strooptdcs,2024.2.1,MacIntel,59.17159763,,,,,,,,,,,green,red,r,no,,,,,,64.4774,67.6261,r,1,2.751199997,,0,13,13,13,1,,,,,
,,,,,B04PRESH,001,2024-10-30_16h46.25.961,strooptdcs,2024.2.1,MacIntel,59.17159763,,,,,,,,,,,red,red,r,yes,,,,,,67.6275,69.0751,r,1,1.050799995,,0,14,14,14,1,,,,,
,,,,,B04PRESH,001,2024-10-30_16h46.25.961,strooptdcs,2024.2.1,MacIntel,59.17159763,,,,,,,,,,,blue,blue,b,yes,,,,,,69.0766,71.2428,b,1,1.779800003,,0,15,15,15,1,,,,,
,,,,,B04PRESH,001,2024-10-30_16h46.25.961,strooptdcs,2024.2.1,MacIntel,59.17159763,,,,,,,,,,,red,yellow,y,no,,,,,,71.2439,73.0428,y,1,1.410900002,,0,16,16,16,1,,,,,
,,,,,B04PRESH,001,2024-10-30_16h46.25.961,strooptdcs,2024.2.1,MacIntel,59.17159763,,,,,,,,,,,red,yellow,y,no,,,,,,73.0433,74.2263,y,1,0.784099998,,0,17,17,17,1,,,,,
,,,,,B04PRESH,001,2024-10-30_16h46.25.961,strooptdcs,2024.2.1,MacIntel,59.17159763,,,,,,,,,,,green,yellow,y,no,,,,,,74.2276,75.9088,y,1,1.295799995,,0,18,18,18,1,,,,,
,,,,,B04PRESH,001,2024-10-30_16h46.25.961,strooptdcs,2024.2.1,MacIntel,59.17159763,,,,,,,,,,,blue,yellow,y,no,,,,,,75.9099,77.2931,y,1,0.984400002,,0,19,19,19,1,,,,,
,,,,,B04PRESH,001,2024-10-30_16h46.25.961,strooptdcs,2024.2.1,MacIntel,59.17159763,,,,,,,,,,,yellow,yellow,y,yes,,,,,,77.2944,78.6764,y,1,0.995599998,,0,20,20,20,1,,,,,
,,,,,B04PRESH,001,2024-10-30_16h46.25.961,strooptdcs,2024.2.1,MacIntel,59.17159763,,,,,,,,,,,red,red,r,yes,,,,,,78.6775,80.9928,r,1,1.922099998,,0,21,21,21,1,,,,,
,,,,,B04PRESH,001,2024-10-30_16h46.25.961,strooptdcs,2024.2.1,MacIntel,59.17159763,,,,,,,,,,,green,green,g,yes,,,,,,80.994,82.8434,g,1,1.454,,0,22,22,22,1,,,,,
,,,,,B04PRESH,001,2024-10-30_16h46.25.961,strooptdcs,2024.2.1,MacIntel,59.17159763,,,,,,,,,,,green,green,g,yes,,,,,,82.8441,83.927,g,1,0.685,,0,23,23,23,1,,,,,
,,,,,B04PRESH,001,2024-10-30_16h46.25.961,strooptdcs,2024.2.1,MacIntel,59.17159763,,,,,,,,,,,blue,blue,b,yes,,,,,,83.9282,85.6267,b,1,1.311,,0,24,24,24,1,,,,,
,,,,,B04PRESH,001,2024-10-30_16h46.25.961,strooptdcs,2024.2.1,MacIntel,59.17159763,,,,,,,,,,,blue,green,g,no,,,,,,85.6272,87.6269,g,1,1.610900002,,0,25,25,25,1,,,,,
,,,,,B04PRESH,001,2024-10-30_16h46.25.961,strooptdcs,2024.2.1,MacIntel,59.17159763,,,,,,,,,,,yellow,red,r,no,,,,,,87.6279,89.476,r,1,1.452099998,,0,26,26,26,1,,,,,
,,,,,B04PRESH,001,2024-10-30_16h46.25.961,strooptdcs,2024.2.1,MacIntel,59.17159763,,,,,,,,,,,blue,blue,b,yes,,,,,,89.4775,92.0427,b,1,2.1675,,0,27,27,27,1,,,,,
,,,,,B04PRESH,001,2024-10-30_16h46.25.961,strooptdcs,2024.2.1,MacIntel,59.17159763,,,,,,,,,,,yellow,yellow,y,yes,,,,,,92.0438,93.9938,y,1,1.550099998,,0,28,28,28,1,,,,,
,,,,,B04PRESH,001,2024-10-30_16h46.25.961,strooptdcs,2024.2.1,MacIntel,59.17159763,,,,,,,,,,,red,yellow,y,no,,,,,,93.9949,95.9104,y,1,1.527400002,,0,29,29,29,1,,,,,
,,,,,B04PRESH,001,2024-10-30_16h46.25.961,strooptdcs,2024.2.1,MacIntel,59.17159763,,,,,,,,,,,yellow,yellow,y,yes,,,,,,95.9113,96.9439,y,1,0.645,,0,30,30,30,1,,,,,
,,,,,B04PRESH,001,2024-10-30_16h46.25.961,strooptdcs,2024.2.1,MacIntel,59.17159763,,,,,,,,,,,green,blue,b,no,,,,,,96.9451,98.4774,b,1,1.144900002,,0,31,31,31,1,,,,,
,,,,,B04PRESH,001,2024-10-30_16h46.25.961,strooptdcs,2024.2.1,MacIntel,59.17159763,,,,,,,,,,,green,green,g,yes,,,,,,98.4781,99.7442,g,1,0.878200005,,0,32,32,32,1,,,,,
,,,,,B04PRESH,001,2024-10-30_16h46.25.961,strooptdcs,2024.2.1,MacIntel,59.17159763,,,,,,,,,,,red,green,g,no,,,,,,99.7453,101.2764,g,1,1.132200005,,0,33,33,33,1,,,,,
,,,,,B04PRESH,001,2024-10-30_16h46.25.961,strooptdcs,2024.2.1,MacIntel,59.17159763,,,,,,,,,,,blue,yellow,y,no,,,,,,101.2779,102.7943,y,1,1.116900002,,0,34,34,34,1,,,,,
,,,,,B04PRESH,001,2024-10-30_16h46.25.961,strooptdcs,2024.2.1,MacIntel,59.17159763,,,,,,,,,,,red,blue,b,no,,,,,,102.7955,104.7775,b,1,1.584900002,,0,35,35,35,1,,,,,
,,,,,B04PRESH,001,2024-10-30_16h46.25.961,strooptdcs,2024.2.1,MacIntel,59.17159763,,,,,,,,,,,red,green,g,no,,,,,,104.7781,107.7447,g,1,2.579800003,,0,36,36,36,1,,,,,
,,,,,B04PRESH,001,2024-10-30_16h46.25.961,strooptdcs,2024.2.1,MacIntel,59.17159763,,,,,,,,,,,green,red,r,no,,,,,,107.7459,109.9279,r,1,1.794400002,,0,37,37,37,1,,,,,
,,,,,B04PRESH,001,2024-10-30_16h46.25.961,strooptdcs,2024.2.1,MacIntel,59.17159763,,,,,,,,,,,red,red,r,yes,,,,,,109.9294,111.0777,r,1,0.754799995,,0,38,38,38,1,,,,,
,,,,,B04PRESH,001,2024-10-30_16h46.25.961,strooptdcs,2024.2.1,MacIntel,59.17159763,,,,,,,,,,,blue,blue,b,yes,,,,,,111.0787,112.2612,b,1,0.795900002,,0,39,39,39,1,,,,,
,,,,,B04PRESH,001,2024-10-30_16h46.25.961,strooptdcs,2024.2.1,MacIntel,59.17159763,,,,,,,,,,,green,green,g,yes,,,,,,112.2625,113.5272,g,1,0.867300003,,0,40,40,40,1,,,,,
,,,,,B04PRESH,001,2024-10-30_16h46.25.961,strooptdcs,2024.2.1,MacIntel,59.17159763,,,,,,,,,,,green,yellow,y,no,,,,,,113.5279,114.7109,y,1,0.784300003,,0,41,41,41,1,,,,,
,,,,,B04PRESH,001,2024-10-30_16h46.25.961,strooptdcs,2024.2.1,MacIntel,59.17159763,,,,,,,,,,,yellow,yellow,y,yes,,,,,,114.7122,115.9938,y,1,0.894799995,,0,42,42,42,1,,,,,
,,,,,B04PRESH,001,2024-10-30_16h46.25.961,strooptdcs,2024.2.1,MacIntel,59.17159763,,,,,,,,,,,yellow,yellow,y,yes,,,,,,115.9942,117.0614,y,1,0.6775,,0,43,43,43,1,,,,,
,,,,,B04PRESH,001,2024-10-30_16h46.25.961,strooptdcs,2024.2.1,MacIntel,59.17159763,,,,,,,,,,,blue,blue,b,yes,,,,,,117.0624,118.2611,b,1,0.801400002,,0,44,44,44,1,,,,,
,,,,,B04PRESH,001,2024-10-30_16h46.25.961,strooptdcs,2024.2.1,MacIntel,59.17159763,,,,,,,,,,,yellow,red,r,no,,,,,,118.2624,119.528,r,1,0.879099998,,0,45,45,45,1,,,,,
,,,,,B04PRESH,001,2024-10-30_16h46.25.961,strooptdcs,2024.2.1,MacIntel,59.17159763,,,,,,,,,,,green,yellow,y,no,,,,,,119.5295,120.8282,g,0,0.911199997,,0,46,46,46,1,,,,,
,,,,,B04PRESH,001,2024-10-30_16h46.25.961,strooptdcs,2024.2.1,MacIntel,59.17159763,,,,,,,,,,,red,red,r,yes,,,,,,120.8295,122.2438,r,1,1.019300003,,0,47,47,47,1,,,,,
,,,,,B04PRESH,001,2024-10-30_16h46.25.961,strooptdcs,2024.2.1,MacIntel,59.17159763,,,,,,,,,,,yellow,yellow,y,yes,,,,,,122.2449,123.3281,y,1,0.683599998,,0,48,48,48,1,,,,,
,,,,,B04PRESH,001,2024-10-30_16h46.25.961,strooptdcs,2024.2.1,MacIntel,59.17159763,,,,,,,,,,,blue,red,r,no,,,,,,123.3293,125.7283,r,1,1.999,,0,49,49,49,1,,,,,
,,,,,B04PRESH,001,2024-10-30_16h46.25.961,strooptdcs,2024.2.1,MacIntel,59.17159763,,,,,,,,,,,blue,blue,b,yes,,,,,,125.7289,126.9274,b,1,0.801400002,,0,50,50,50,1,,,,,
,,,,,B04PRESH,001,2024-10-30_16h46.25.961,strooptdcs,2024.2.1,MacIntel,59.17159763,,,,,,,,,,,red,blue,b,no,,,,,,126.9284,128.3617,b,1,1.044400002,,0,51,51,51,1,,,,,
,,,,,B04PRESH,001,2024-10-30_16h46.25.961,strooptdcs,2024.2.1,MacIntel,59.17159763,,,,,,,,,,,yellow,red,r,no,,,,,,128.3629,129.7284,r,1,0.967399994,,0,52,52,52,1,,,,,
,,,,,B04PRESH,001,2024-10-30_16h46.25.961,strooptdcs,2024.2.1,MacIntel,59.17159763,,,,,,,,,,,green,blue,b,no,,,,,,129.7297,133.1452,b,1,3.018200005,,0,53,53,53,1,,,,,
,,,,,B04PRESH,001,2024-10-30_16h46.25.961,strooptdcs,2024.2.1,MacIntel,59.17159763,,,,,,,,,,,yellow,blue,b,no,,,,,,133.1463,134.4953,b,1,0.951099998,,0,54,54,54,1,,,,,
,,,,,B04PRESH,001,2024-10-30_16h46.25.961,strooptdcs,2024.2.1,MacIntel,59.17159763,,,,,,,,,,,blue,blue,b,yes,,,,,,134.4966,135.361,b,1,0.467800003,,0,55,55,55,1,,,,,
,,,,,B04PRESH,001,2024-10-30_16h46.25.961,strooptdcs,2024.2.1,MacIntel,59.17159763,,,,,,,,,,,red,red,r,yes,,,,,,135.3622,136.6286,r,1,0.8785,,0,56,56,56,1,,,,,
,,,,,B04PRESH,001,2024-10-30_16h46.25.961,strooptdcs,2024.2.1,MacIntel,59.17159763,,,,,,,,,,,red,green,g,no,,,,,,136.6291,137.8788,g,1,0.8515,,0,57,57,57,1,,,,,
,,,,,B04PRESH,001,2024-10-30_16h46.25.961,strooptdcs,2024.2.1,MacIntel,59.17159763,,,,,,,,,,,blue,red,r,no,,,,,,137.88,139.0121,b,0,0.745599998,,0,58,58,58,1,,,,,
,,,,,B04PRESH,001,2024-10-30_16h46.25.961,strooptdcs,2024.2.1,MacIntel,59.17159763,,,,,,,,,,,red,blue,b,no,,,,,,139.0131,142.3783,b,1,2.968200005,,0,59,59,59,1,,,,,
,,,,,B04PRESH,001,2024-10-30_16h46.25.961,strooptdcs,2024.2.1,MacIntel,59.17159763,,,,,,,,,,,red,red,r,yes,,,,,,142.3788,144.9284,r,1,2.150699997,,0,60,60,60,1,,,,,
,,,,,B04PRESH,001,2024-10-30_16h46.25.961,strooptdcs,2024.2.1,MacIntel,59.17159763,,,,,,,,,,,red,red,r,yes,,,,,,144.9288,145.8457,r,1,0.527799995,,0,61,61,61,1,,,,,
,,,,,B04PRESH,001,2024-10-30_16h46.25.961,strooptdcs,2024.2.1,MacIntel,59.17159763,,,,,,,,,,,yellow,blue,b,no,,,,,,145.8466,147.5613,b,1,1.327400002,,0,62,62,62,1,,,,,
,,,,,B04PRESH,001,2024-10-30_16h46.25.961,strooptdcs,2024.2.1,MacIntel,59.17159763,,,,,,,,,,,blue,blue,b,yes,,,,,,147.5621,150.6627,b,1,2.711099998,,0,63,63,63,1,,,,,
,,,,,B04PRESH,001,2024-10-30_16h46.25.961,strooptdcs,2024.2.1,MacIntel,59.17159763,,,,,,,,,,,blue,yellow,y,no,,,,,,150.6633,152.5126,y,1,1.451700005,,0,64,64,64,1,,,,,
,,,,,B04PRESH,001,2024-10-30_16h46.25.961,strooptdcs,2024.2.1,MacIntel,59.17159763,,,,,,,,,,,green,green,g,yes,,,,,,152.5135,153.7452,g,1,0.8455,,0,65,65,65,1,,,,,
,,,,,B04PRESH,001,2024-10-30_16h46.25.961,strooptdcs,2024.2.1,MacIntel,59.17159763,,,,,,,,,,,green,blue,b,no,,,,,,153.7459,156.4294,b,1,2.2865,,0,66,66,66,1,,,,,
,,,,,B04PRESH,001,2024-10-30_16h46.25.961,strooptdcs,2024.2.1,MacIntel,59.17159763,,,,,,,,,,,green,green,g,yes,,,,,,156.4299,157.7291,g,1,0.910400002,,0,67,67,67,1,,,,,
,,,,,B04PRESH,001,2024-10-30_16h46.25.961,strooptdcs,2024.2.1,MacIntel,59.17159763,,,,,,,,,,,red,red,r,yes,,,,,,157.7301,159.4794,r,1,1.353700005,,0,68,68,68,1,,,,,
,,,,,B04PRESH,001,2024-10-30_16h46.25.961,strooptdcs,2024.2.1,MacIntel,59.17159763,,,,,,,,,,,yellow,yellow,y,yes,,,,,,159.4806,160.8293,y,1,0.96,,0,69,69,69,1,,,,,
,,,,,B04PRESH,001,2024-10-30_16h46.25.961,strooptdcs,2024.2.1,MacIntel,59.17159763,,,,,,,,,,,yellow,green,g,no,,,,,,160.8297,163.6463,g,1,2.4275,,0,70,70,70,1,,,,,
,,,,,B04PRESH,001,2024-10-30_16h46.25.961,strooptdcs,2024.2.1,MacIntel,59.17159763,,,,,,,,,,,green,red,r,no,,,,,,163.6474,164.8464,r,1,0.801,,0,71,71,71,1,,,,,
,,,,,B04PRESH,001,2024-10-30_16h46.25.961,strooptdcs,2024.2.1,MacIntel,59.17159763,,,,,,,,,,,,,,,,,,,,,,,,,,,,,,,164.8468,166.8134,y,1.337700005,
