"trial_type","trial_index","time_elapsed","internal_node_id","userID","sessionType","success","rt","responses","stage","stimulus","key_press","sequence","recall","sequence_last_digits","digit","correct"
"pavlovia","0","3","0.0-0.0","B10PRETR","PRE","","","","","","","","","","",""
"fullscreen","1","2871","0.0-1.0","B10PRETR","PRE","true","","","","","","","","","",""
"survey-html-form","2","14170","0.0-2.0","B10PRETR","PRE","","10634.899993896484","{""userID"":""B10PRETR"",""type"":""PRE""}","userID","","","","","","",""
"html-keyboard-response","3","45900","0.0-3.0","B10PRETR","PRE","","31067.100006103516","","","<p>Welcome to this task.</p>			<p>You will see a set of numbers, presented one at a time.<br/>			You need to pay attention to the numbers in the list and their order.<br/>			The list will end abruptly at any time. You will be told to enter the LAST X number of digits.</p>			<p>[Press SPACE to practice]</p>","32","","","","",""
"html-keyboard-response","4","46713","0.0-4.0","B10PRETR","PRE","","null","","fixation cross","<div class='stimulus'>+</div>","null","","","","",""
"html-keyboard-response","5","48503","0.0-5.0","B10PRETR","PRE","","null","","practice display digit","<div class=""stimulus"">9</div>","null","9,8,3","","","",""
"html-keyboard-response","6","50292","0.0-6.0","B10PRETR","PRE","","null","","practice display digit","<div class=""stimulus"">8</div>","null","9,8,3","","","",""
"html-keyboard-response","7","52081","0.0-7.0","B10PRETR","PRE","","null","","practice display digit","<div class=""stimulus"">3</div>","null","9,8,3","","","",""
"survey-html-form-autofocus","8","56816","0.0-8.0","B10PRETR","PRE","","4067.099998474121","{""recall"":""83""}","practice recall","","","983","","83","",""
"html-keyboard-response","9","58851","0.0-9.0","B10PRETR","PRE","","1372.2000045776367","","","<span class='correct'>Perfect!</span><br/>Press SPACE to continue.","32","","","","",""
"html-keyboard-response","10","59664","0.0-10.0","B10PRETR","PRE","","null","","fixation cross","<div class='stimulus'>+</div>","null","","","","",""
"html-keyboard-response","11","61454","0.0-11.0","B10PRETR","PRE","","null","","practice display digit","<div class=""stimulus"">4</div>","null","4,8,2,1,9","","","",""
"html-keyboard-response","12","63243","0.0-12.0","B10PRETR","PRE","","null","","practice display digit","<div class=""stimulus"">8</div>","null","4,8,2,1,9","","","",""
"html-keyboard-response","13","65032","0.0-13.0","B10PRETR","PRE","","null","","practice display digit","<div class=""stimulus"">2</div>","null","4,8,2,1,9","","","",""
"html-keyboard-response","14","66820","0.0-14.0","B10PRETR","PRE","","null","","practice display digit","<div class=""stimulus"">1</div>","null","4,8,2,1,9","","","",""
"html-keyboard-response","15","68608","0.0-15.0","B10PRETR","PRE","","null","","practice display digit","<div class=""stimulus"">9</div>","null","4,8,2,1,9","","","",""
"survey-html-form-autofocus","16","71464","0.0-16.0","B10PRETR","PRE","","2191.099998474121","{""recall"":""19""}","practice recall","","","48219","","219","",""
"html-keyboard-response","17","76645","0.0-17.0","B10PRETR","PRE","","4517.200004577637","","","<p>The sequence was 48219					and you input 19.<br/>					<span class='incorrect'>You should have written 219.</span></p>						<p>Press SPACE to continue</p>","32","","","","",""
"html-keyboard-response","18","77458","0.0-18.0","B10PRETR","PRE","","null","","fixation cross","<div class='stimulus'>+</div>","null","","","","",""
"html-keyboard-response","19","79247","0.0-19.0","B10PRETR","PRE","","null","","practice display digit","<div class=""stimulus"">5</div>","null","5,7,1,9,4,2,3,6","","","",""
"html-keyboard-response","20","81036","0.0-20.0","B10PRETR","PRE","","null","","practice display digit","<div class=""stimulus"">7</div>","null","5,7,1,9,4,2,3,6","","","",""
"html-keyboard-response","21","82825","0.0-21.0","B10PRETR","PRE","","null","","practice display digit","<div class=""stimulus"">1</div>","null","5,7,1,9,4,2,3,6","","","",""
"html-keyboard-response","22","84612","0.0-22.0","B10PRETR","PRE","","null","","practice display digit","<div class=""stimulus"">9</div>","null","5,7,1,9,4,2,3,6","","","",""
"html-keyboard-response","23","86401","0.0-23.0","B10PRETR","PRE","","null","","practice display digit","<div class=""stimulus"">4</div>","null","5,7,1,9,4,2,3,6","","","",""
"html-keyboard-response","24","88190","0.0-24.0","B10PRETR","PRE","","null","","practice display digit","<div class=""stimulus"">2</div>","null","5,7,1,9,4,2,3,6","","","",""
"html-keyboard-response","25","89979","0.0-25.0","B10PRETR","PRE","","null","","practice display digit","<div class=""stimulus"">3</div>","null","5,7,1,9,4,2,3,6","","","",""
"html-keyboard-response","26","91768","0.0-26.0","B10PRETR","PRE","","null","","practice display digit","<div class=""stimulus"">6</div>","null","5,7,1,9,4,2,3,6","","","",""
"survey-html-form-autofocus","27","106851","0.0-27.0","B10PRETR","PRE","","14418.800003051758","{""recall"":""4236""}","practice recall","","","57194236","","4236","",""
"html-keyboard-response","28","109102","0.0-28.0","B10PRETR","PRE","","1588.3999938964844","","","<span class='correct'>Perfect!</span><br/>Press SPACE to continue.","32","","","","",""
"html-keyboard-response","29","117660","0.0-29.0","B10PRETR","PRE","","8546.400001525879","","","<p>That was the practice section.<br/>			<p>Now goes the official part of the task.<br/>			You won't be given any feedback on your performance.</p>			<p>R U ready?</p>			<p>[Press Y to begin]</p>","89","","","","",""
"html-keyboard-response","30","119123","0.0-30.0","B10PRETR","PRE","","null","","fixation cross","<div class='stimulus'>+</div>","null","","","","",""
"html-keyboard-response","31","120912","0.0-31.0","B10PRETR","PRE","","null","","display digit","<div class=""stimulus"">3</div>","null","3,5,7,3,2,6,2,1,9,6,0,2,3","","","3",""
"html-keyboard-response","32","122702","0.0-32.0","B10PRETR","PRE","","null","","display digit","<div class=""stimulus"">5</div>","null","3,5,7,3,2,6,2,1,9,6,0,2,3","","","5",""
"html-keyboard-response","33","124491","0.0-33.0","B10PRETR","PRE","","null","","display digit","<div class=""stimulus"">7</div>","null","3,5,7,3,2,6,2,1,9,6,0,2,3","","","7",""
"html-keyboard-response","34","126280","0.0-34.0","B10PRETR","PRE","","null","","display digit","<div class=""stimulus"">3</div>","null","3,5,7,3,2,6,2,1,9,6,0,2,3","","","3",""
"html-keyboard-response","35","128069","0.0-35.0","B10PRETR","PRE","","null","","display digit","<div class=""stimulus"">2</div>","null","3,5,7,3,2,6,2,1,9,6,0,2,3","","","2",""
"html-keyboard-response","36","129858","0.0-36.0","B10PRETR","PRE","","null","","display digit","<div class=""stimulus"">6</div>","null","3,5,7,3,2,6,2,1,9,6,0,2,3","","","6",""
"html-keyboard-response","37","131648","0.0-37.0","B10PRETR","PRE","","null","","display digit","<div class=""stimulus"">2</div>","null","3,5,7,3,2,6,2,1,9,6,0,2,3","","","2",""
"html-keyboard-response","38","133436","0.0-38.0","B10PRETR","PRE","","null","","display digit","<div class=""stimulus"">1</div>","null","3,5,7,3,2,6,2,1,9,6,0,2,3","","","1",""
"html-keyboard-response","39","135225","0.0-39.0","B10PRETR","PRE","","null","","display digit","<div class=""stimulus"">9</div>","null","3,5,7,3,2,6,2,1,9,6,0,2,3","","","9",""
"html-keyboard-response","40","137014","0.0-40.0","B10PRETR","PRE","","null","","display digit","<div class=""stimulus"">6</div>","null","3,5,7,3,2,6,2,1,9,6,0,2,3","","","6",""
"html-keyboard-response","41","138803","0.0-41.0","B10PRETR","PRE","","null","","display digit","<div class=""stimulus"">0</div>","null","3,5,7,3,2,6,2,1,9,6,0,2,3","","","0",""
"html-keyboard-response","42","140592","0.0-42.0","B10PRETR","PRE","","null","","display digit","<div class=""stimulus"">2</div>","null","3,5,7,3,2,6,2,1,9,6,0,2,3","","","2",""
"html-keyboard-response","43","142381","0.0-43.0","B10PRETR","PRE","","null","","display digit","<div class=""stimulus"">3</div>","null","3,5,7,3,2,6,2,1,9,6,0,2,3","","","3",""
"survey-html-form-autofocus","44","146111","0.0-44.0","B10PRETR","PRE","","3065.6000061035156","{""recall"":""3""}","recall","","","3573262196023","3","3","","true"
"html-keyboard-response","45","147576","0.0-45.0","B10PRETR","PRE","","null","","fixation cross","<div class='stimulus'>+</div>","null","","","","",""
"html-keyboard-response","46","149364","0.0-46.0","B10PRETR","PRE","","null","","display digit","<div class=""stimulus"">9</div>","null","9,8,1","","","9",""
"html-keyboard-response","47","151153","0.0-47.0","B10PRETR","PRE","","null","","display digit","<div class=""stimulus"">8</div>","null","9,8,1","","","8",""
"html-keyboard-response","48","152943","0.0-48.0","B10PRETR","PRE","","null","","display digit","<div class=""stimulus"">1</div>","null","9,8,1","","","1",""
"survey-html-form-autofocus","49","156147","0.0-49.0","B10PRETR","PRE","","2538.2000045776367","{""recall"":""1""}","recall","","","981","1","1","","true"
"html-keyboard-response","50","157610","0.0-50.0-0.0","B10PRETR","PRE","","null","","fixation cross","<div class='stimulus'>+</div>","null","","","","",""
"html-keyboard-response","51","159400","0.0-50.0-1.0","B10PRETR","PRE","","null","","display digit","<div class=""stimulus"">8</div>","null","8,0,8,7,5,7","","","8",""
"html-keyboard-response","52","161189","0.0-50.0-2.0","B10PRETR","PRE","","null","","display digit","<div class=""stimulus"">0</div>","null","8,0,8,7,5,7","","","0",""
"html-keyboard-response","53","162978","0.0-50.0-3.0","B10PRETR","PRE","","null","","display digit","<div class=""stimulus"">8</div>","null","8,0,8,7,5,7","","","8",""
"html-keyboard-response","54","164767","0.0-50.0-4.0","B10PRETR","PRE","","null","","display digit","<div class=""stimulus"">7</div>","null","8,0,8,7,5,7","","","7",""
"html-keyboard-response","55","166555","0.0-50.0-5.0","B10PRETR","PRE","","null","","display digit","<div class=""stimulus"">5</div>","null","8,0,8,7,5,7","","","5",""
"html-keyboard-response","56","168344","0.0-50.0-6.0","B10PRETR","PRE","","null","","display digit","<div class=""stimulus"">7</div>","null","8,0,8,7,5,7","","","7",""
"survey-html-form-autofocus","57","172404","0.0-50.0-7.0","B10PRETR","PRE","","3394.300003051758","{""recall"":""57""}","recall","","","808757","57","57","","true"
"html-keyboard-response","58","173868","0.0-50.0-8.0","B10PRETR","PRE","","null","","fixation cross","<div class='stimulus'>+</div>","null","","","","",""
"html-keyboard-response","59","175658","0.0-50.0-9.0","B10PRETR","PRE","","null","","display digit","<div class=""stimulus"">1</div>","null","1,6,5","","","1",""
"html-keyboard-response","60","177448","0.0-50.0-10.0","B10PRETR","PRE","","null","","display digit","<div class=""stimulus"">6</div>","null","1,6,5","","","6",""
"html-keyboard-response","61","179237","0.0-50.0-11.0","B10PRETR","PRE","","null","","display digit","<div class=""stimulus"">5</div>","null","1,6,5","","","5",""
"survey-html-form-autofocus","62","183675","0.0-50.0-12.0","B10PRETR","PRE","","3773","{""recall"":""65""}","recall","","","165","65","65","","true"
"html-keyboard-response","63","185139","0.0-50.0-13.0-0.0","B10PRETR","PRE","","null","","fixation cross","<div class='stimulus'>+</div>","null","","","","",""
"html-keyboard-response","64","186927","0.0-50.0-13.0-1.0","B10PRETR","PRE","","null","","display digit","<div class=""stimulus"">6</div>","null","6,7,3,8,7,3","","","6",""
"html-keyboard-response","65","188717","0.0-50.0-13.0-2.0","B10PRETR","PRE","","null","","display digit","<div class=""stimulus"">7</div>","null","6,7,3,8,7,3","","","7",""
"html-keyboard-response","66","190506","0.0-50.0-13.0-3.0","B10PRETR","PRE","","null","","display digit","<div class=""stimulus"">3</div>","null","6,7,3,8,7,3","","","3",""
"html-keyboard-response","67","192295","0.0-50.0-13.0-4.0","B10PRETR","PRE","","null","","display digit","<div class=""stimulus"">8</div>","null","6,7,3,8,7,3","","","8",""
"html-keyboard-response","68","194084","0.0-50.0-13.0-5.0","B10PRETR","PRE","","null","","display digit","<div class=""stimulus"">7</div>","null","6,7,3,8,7,3","","","7",""
"html-keyboard-response","69","195872","0.0-50.0-13.0-6.0","B10PRETR","PRE","","null","","display digit","<div class=""stimulus"">3</div>","null","6,7,3,8,7,3","","","3",""
"survey-html-form-autofocus","70","201426","0.0-50.0-13.0-7.0","B10PRETR","PRE","","4888.600006103516","{""recall"":""873""}","recall","","","673873","873","873","","true"
"html-keyboard-response","71","202890","0.0-50.0-13.0-8.0","B10PRETR","PRE","","null","","fixation cross","<div class='stimulus'>+</div>","null","","","","",""
"html-keyboard-response","72","204679","0.0-50.0-13.0-9.0","B10PRETR","PRE","","null","","display digit","<div class=""stimulus"">0</div>","null","0,4,2,5,4,6,1","","","0",""
"html-keyboard-response","73","206467","0.0-50.0-13.0-10.0","B10PRETR","PRE","","null","","display digit","<div class=""stimulus"">4</div>","null","0,4,2,5,4,6,1","","","4",""
"html-keyboard-response","74","208256","0.0-50.0-13.0-11.0","B10PRETR","PRE","","null","","display digit","<div class=""stimulus"">2</div>","null","0,4,2,5,4,6,1","","","2",""
"html-keyboard-response","75","210044","0.0-50.0-13.0-12.0","B10PRETR","PRE","","null","","display digit","<div class=""stimulus"">5</div>","null","0,4,2,5,4,6,1","","","5",""
"html-keyboard-response","76","211833","0.0-50.0-13.0-13.0","B10PRETR","PRE","","null","","display digit","<div class=""stimulus"">4</div>","null","0,4,2,5,4,6,1","","","4",""
"html-keyboard-response","77","213622","0.0-50.0-13.0-14.0","B10PRETR","PRE","","null","","display digit","<div class=""stimulus"">6</div>","null","0,4,2,5,4,6,1","","","6",""
"html-keyboard-response","78","215411","0.0-50.0-13.0-15.0","B10PRETR","PRE","","null","","display digit","<div class=""stimulus"">1</div>","null","0,4,2,5,4,6,1","","","1",""
"survey-html-form-autofocus","79","220043","0.0-50.0-13.0-16.0","B10PRETR","PRE","","3968.2000045776367","{""recall"":""461""}","recall","","","0425461","461","461","","true"
"html-keyboard-response","80","221507","0.0-50.0-13.0-17.0-0.0","B10PRETR","PRE","","null","","fixation cross","<div class='stimulus'>+</div>","null","","","","",""
"html-keyboard-response","81","223296","0.0-50.0-13.0-17.0-1.0","B10PRETR","PRE","","null","","display digit","<div class=""stimulus"">0</div>","null","0,4,6,9,3,1,4,9","","","0",""
"html-keyboard-response","82","225084","0.0-50.0-13.0-17.0-2.0","B10PRETR","PRE","","null","","display digit","<div class=""stimulus"">4</div>","null","0,4,6,9,3,1,4,9","","","4",""
"html-keyboard-response","83","226874","0.0-50.0-13.0-17.0-3.0","B10PRETR","PRE","","null","","display digit","<div class=""stimulus"">6</div>","null","0,4,6,9,3,1,4,9","","","6",""
"html-keyboard-response","84","228663","0.0-50.0-13.0-17.0-4.0","B10PRETR","PRE","","null","","display digit","<div class=""stimulus"">9</div>","null","0,4,6,9,3,1,4,9","","","9",""
"html-keyboard-response","85","230452","0.0-50.0-13.0-17.0-5.0","B10PRETR","PRE","","null","","display digit","<div class=""stimulus"">3</div>","null","0,4,6,9,3,1,4,9","","","3",""
"html-keyboard-response","86","232240","0.0-50.0-13.0-17.0-6.0","B10PRETR","PRE","","null","","display digit","<div class=""stimulus"">1</div>","null","0,4,6,9,3,1,4,9","","","1",""
"html-keyboard-response","87","234029","0.0-50.0-13.0-17.0-7.0","B10PRETR","PRE","","null","","display digit","<div class=""stimulus"">4</div>","null","0,4,6,9,3,1,4,9","","","4",""
"html-keyboard-response","88","235819","0.0-50.0-13.0-17.0-8.0","B10PRETR","PRE","","null","","display digit","<div class=""stimulus"">9</div>","null","0,4,6,9,3,1,4,9","","","9",""
"survey-html-form-autofocus","89","245795","0.0-50.0-13.0-17.0-9.0","B10PRETR","PRE","","9311.400001525879","{""recall"":""4931""}","recall","","","04693149","4931","3149","","false"
"html-keyboard-response","90","247259","0.0-50.0-13.0-17.0-10.0","B10PRETR","PRE","","null","","fixation cross","<div class='stimulus'>+</div>","null","","","","",""
"html-keyboard-response","91","249048","0.0-50.0-13.0-17.0-11.0","B10PRETR","PRE","","null","","display digit","<div class=""stimulus"">2</div>","null","2,0,4,9,0,5,3,9,5,3,4,7,6","","","2",""
"html-keyboard-response","92","250837","0.0-50.0-13.0-17.0-12.0","B10PRETR","PRE","","null","","display digit","<div class=""stimulus"">0</div>","null","2,0,4,9,0,5,3,9,5,3,4,7,6","","","0",""
"html-keyboard-response","93","252627","0.0-50.0-13.0-17.0-13.0","B10PRETR","PRE","","null","","display digit","<div class=""stimulus"">4</div>","null","2,0,4,9,0,5,3,9,5,3,4,7,6","","","4",""
"html-keyboard-response","94","254415","0.0-50.0-13.0-17.0-14.0","B10PRETR","PRE","","null","","display digit","<div class=""stimulus"">9</div>","null","2,0,4,9,0,5,3,9,5,3,4,7,6","","","9",""
"html-keyboard-response","95","256205","0.0-50.0-13.0-17.0-15.0","B10PRETR","PRE","","null","","display digit","<div class=""stimulus"">0</div>","null","2,0,4,9,0,5,3,9,5,3,4,7,6","","","0",""
"html-keyboard-response","96","257995","0.0-50.0-13.0-17.0-16.0","B10PRETR","PRE","","null","","display digit","<div class=""stimulus"">5</div>","null","2,0,4,9,0,5,3,9,5,3,4,7,6","","","5",""
"html-keyboard-response","97","259783","0.0-50.0-13.0-17.0-17.0","B10PRETR","PRE","","null","","display digit","<div class=""stimulus"">3</div>","null","2,0,4,9,0,5,3,9,5,3,4,7,6","","","3",""
"html-keyboard-response","98","261573","0.0-50.0-13.0-17.0-18.0","B10PRETR","PRE","","null","","display digit","<div class=""stimulus"">9</div>","null","2,0,4,9,0,5,3,9,5,3,4,7,6","","","9",""
"html-keyboard-response","99","263363","0.0-50.0-13.0-17.0-19.0","B10PRETR","PRE","","null","","display digit","<div class=""stimulus"">5</div>","null","2,0,4,9,0,5,3,9,5,3,4,7,6","","","5",""
"html-keyboard-response","100","265152","0.0-50.0-13.0-17.0-20.0","B10PRETR","PRE","","null","","display digit","<div class=""stimulus"">3</div>","null","2,0,4,9,0,5,3,9,5,3,4,7,6","","","3",""
"html-keyboard-response","101","266940","0.0-50.0-13.0-17.0-21.0","B10PRETR","PRE","","null","","display digit","<div class=""stimulus"">4</div>","null","2,0,4,9,0,5,3,9,5,3,4,7,6","","","4",""
"html-keyboard-response","102","268729","0.0-50.0-13.0-17.0-22.0","B10PRETR","PRE","","null","","display digit","<div class=""stimulus"">7</div>","null","2,0,4,9,0,5,3,9,5,3,4,7,6","","","7",""
"html-keyboard-response","103","270519","0.0-50.0-13.0-17.0-23.0","B10PRETR","PRE","","null","","display digit","<div class=""stimulus"">6</div>","null","2,0,4,9,0,5,3,9,5,3,4,7,6","","","6",""
"survey-html-form-autofocus","104","280443","0.0-50.0-13.0-17.0-24.0","B10PRETR","PRE","","9260.700004577637","{""recall"":""4673""}","recall","","","2049053953476","4673","3476","","false"
"html-keyboard-response","105","294273","0.0-51.0","B10PRETR","PRE","","13167.5","","","<p>End of the experiment.<br/>			   		You reached level 4 and your					total score is 6.</p>					<p class=""important"">PRESS SPACE TO FINISH THE EXPERIMENT.</p>","32","","","","",""
"fullscreen","106","295287","0.0-52.0","B10PRETR","PRE","true","","","","","","","","","",""
