instruct.started,instruct.stopped,key_resp_instr.keys,key_resp_instr.rt,key_resp_instr.duration,participant,session,date,expName,psychopyVersion,OS,frameRate,practice.started,practice.stopped,practicetrialskeys.keys,practicetrialskeys.rt,practicetrialskeys.duration,practicetrialss.thisRepN,practicetrialss.thisTrialN,practicetrialss.thisN,practicetrialss.thisIndex,practicetrialss.ran,text,letterColor,corrAns,congruent,RUready.started,RUready.stopped,key_resp_2.keys,key_resp_2.rt,key_resp_2.duration,trials.started,trials.stopped,key_resp_trials.keys,key_resp_trials.corr,key_resp_trials.rt,key_resp_trials.duration,trials_2.thisRepN,trials_2.thisTrialN,trials_2.thisN,trials_2.thisIndex,trials_2.ran,thanks.started,thanks.stopped,key_resp.keys,key_resp.rt,key_resp.duration
0.000299995,14.7645,y,13.746,,A07POSTSH,001,2024-11-15_11h36.03.476,strooptdcs_posttest,2024.2.2,MacIntel,57.80346821,,,,,,,,,,,,,,,,,,,,,,,,,,,,,,,,,,,
,,,,,A07POSTSH,001,2024-11-15_11h36.03.476,strooptdcs_posttest,2024.2.2,MacIntel,57.80346821,14.7816,16.5137,y,1.286900002,,0,0,0,0,1,yellow,yellow,y,yes,,,,,,,,,,,,,,,,,,,,,
,,,,,A07POSTSH,001,2024-11-15_11h36.03.476,strooptdcs_posttest,2024.2.2,MacIntel,57.80346821,16.5153,18.7136,b,1.755799995,,0,1,1,1,1,green,blue,b,no,,,,,,,,,,,,,,,,,,,,,
,,,,,A07POSTSH,001,2024-11-15_11h36.03.476,strooptdcs_posttest,2024.2.2,MacIntel,57.80346821,18.7145,21.2308,g,2.093699997,,0,2,2,2,1,green,green,g,yes,,,,,,,,,,,,,,,,,,,,,
,,,,,A07POSTSH,001,2024-11-15_11h36.03.476,strooptdcs_posttest,2024.2.2,MacIntel,57.80346821,21.2321,22.9795,g,1.310200005,,0,3,3,3,1,red,green,g,no,,,,,,,,,,,,,,,,,,,,,
,,,,,A07POSTSH,001,2024-11-15_11h36.03.476,strooptdcs_posttest,2024.2.2,MacIntel,57.80346821,22.981,24.496,y,1.093,,0,4,4,4,1,blue,yellow,y,no,,,,,,,,,,,,,,,,,,,,,
,,,,,A07POSTSH,001,2024-11-15_11h36.03.476,strooptdcs_posttest,2024.2.2,MacIntel,57.80346821,,,,,,,,,,,,,,,24.4964,27.6145,y,1.996599998,,,,,,,,,,,,,,,,,
,,,,,A07POSTSH,001,2024-11-15_11h36.03.476,strooptdcs_posttest,2024.2.2,MacIntel,57.80346821,,,,,,,,,,,red,red,r,yes,,,,,,27.6344,29.4632,r,1,1.418299995,,0,0,0,0,1,,,,,
,,,,,A07POSTSH,001,2024-11-15_11h36.03.476,strooptdcs_posttest,2024.2.2,MacIntel,57.80346821,,,,,,,,,,,blue,blue,b,yes,,,,,,29.4647,30.847,b,1,0.984199997,,0,1,1,1,1,,,,,
,,,,,A07POSTSH,001,2024-11-15_11h36.03.476,strooptdcs_posttest,2024.2.2,MacIntel,57.80346821,,,,,,,,,,,yellow,green,g,no,,,,,,30.8483,32.364,g,1,1.1305,,0,2,2,2,1,,,,,
,,,,,A07POSTSH,001,2024-11-15_11h36.03.476,strooptdcs_posttest,2024.2.2,MacIntel,57.80346821,,,,,,,,,,,blue,green,g,no,,,,,,32.3653,33.514,g,1,0.760699997,,0,3,3,3,1,,,,,
,,,,,A07POSTSH,001,2024-11-15_11h36.03.476,strooptdcs_posttest,2024.2.2,MacIntel,57.80346821,,,,,,,,,,,green,green,g,yes,,,,,,33.5152,34.3135,g,1,0.398900002,,0,4,4,4,1,,,,,
,,,,,A07POSTSH,001,2024-11-15_11h36.03.476,strooptdcs_posttest,2024.2.2,MacIntel,57.80346821,,,,,,,,,,,blue,red,r,no,,,,,,34.3147,36.0143,r,1,1.300800003,,0,5,5,5,1,,,,,
,,,,,A07POSTSH,001,2024-11-15_11h36.03.476,strooptdcs_posttest,2024.2.2,MacIntel,57.80346821,,,,,,,,,,,yellow,green,g,no,,,,,,36.0155,37.4645,g,1,1.050400002,,0,6,6,6,1,,,,,
,,,,,A07POSTSH,001,2024-11-15_11h36.03.476,strooptdcs_posttest,2024.2.2,MacIntel,57.80346821,,,,,,,,,,,blue,green,g,no,,,,,,37.4662,38.331,g,1,0.478299995,,0,7,7,7,1,,,,,
,,,,,A07POSTSH,001,2024-11-15_11h36.03.476,strooptdcs_posttest,2024.2.2,MacIntel,57.80346821,,,,,,,,,,,green,green,g,yes,,,,,,38.332,40.9645,g,1,2.234100006,,0,8,8,8,1,,,,,
,,,,,A07POSTSH,001,2024-11-15_11h36.03.476,strooptdcs_posttest,2024.2.2,MacIntel,57.80346821,,,,,,,,,,,yellow,yellow,y,yes,,,,,,40.9656,43.1309,y,1,1.778400002,,0,9,9,9,1,,,,,
,,,,,A07POSTSH,001,2024-11-15_11h36.03.476,strooptdcs_posttest,2024.2.2,MacIntel,57.80346821,,,,,,,,,,,yellow,yellow,y,yes,,,,,,43.1316,44.0144,y,1,0.496099998,,0,10,10,10,1,,,,,
,,,,,A07POSTSH,001,2024-11-15_11h36.03.476,strooptdcs_posttest,2024.2.2,MacIntel,57.80346821,,,,,,,,,,,green,green,g,yes,,,,,,44.0156,45.7471,g,1,1.345099998,,0,11,11,11,1,,,,,
,,,,,A07POSTSH,001,2024-11-15_11h36.03.476,strooptdcs_posttest,2024.2.2,MacIntel,57.80346821,,,,,,,,,,,yellow,blue,b,no,,,,,,45.7485,47.1635,b,1,1.017400002,,0,12,12,12,1,,,,,
,,,,,A07POSTSH,001,2024-11-15_11h36.03.476,strooptdcs_posttest,2024.2.2,MacIntel,57.80346821,,,,,,,,,,,green,red,r,no,,,,,,47.1646,48.6314,r,1,1.071099998,,0,13,13,13,1,,,,,
,,,,,A07POSTSH,001,2024-11-15_11h36.03.476,strooptdcs_posttest,2024.2.2,MacIntel,57.80346821,,,,,,,,,,,red,red,r,yes,,,,,,48.6328,49.5815,r,1,0.562099998,,0,14,14,14,1,,,,,
,,,,,A07POSTSH,001,2024-11-15_11h36.03.476,strooptdcs_posttest,2024.2.2,MacIntel,57.80346821,,,,,,,,,,,blue,blue,b,yes,,,,,,49.5827,50.8478,b,1,0.870400002,,0,15,15,15,1,,,,,
,,,,,A07POSTSH,001,2024-11-15_11h36.03.476,strooptdcs_posttest,2024.2.2,MacIntel,57.80346821,,,,,,,,,,,red,yellow,y,no,,,,,,50.8492,52.2477,y,1,0.999,,0,16,16,16,1,,,,,
,,,,,A07POSTSH,001,2024-11-15_11h36.03.476,strooptdcs_posttest,2024.2.2,MacIntel,57.80346821,,,,,,,,,,,red,yellow,y,no,,,,,,52.2482,53.0304,y,1,0.383099998,,0,17,17,17,1,,,,,
,,,,,A07POSTSH,001,2024-11-15_11h36.03.476,strooptdcs_posttest,2024.2.2,MacIntel,57.80346821,,,,,,,,,,,green,yellow,y,no,,,,,,53.0316,54.0647,y,1,0.635299995,,0,18,18,18,1,,,,,
,,,,,A07POSTSH,001,2024-11-15_11h36.03.476,strooptdcs_posttest,2024.2.2,MacIntel,57.80346821,,,,,,,,,,,blue,yellow,y,no,,,,,,54.0658,55.065,y,1,0.611700005,,0,19,19,19,1,,,,,
,,,,,A07POSTSH,001,2024-11-15_11h36.03.476,strooptdcs_posttest,2024.2.2,MacIntel,57.80346821,,,,,,,,,,,yellow,yellow,y,yes,,,,,,55.0663,55.9817,y,1,0.517400002,,0,20,20,20,1,,,,,
,,,,,A07POSTSH,001,2024-11-15_11h36.03.476,strooptdcs_posttest,2024.2.2,MacIntel,57.80346821,,,,,,,,,,,red,red,r,yes,,,,,,55.983,58.0816,r,1,1.699099998,,0,21,21,21,1,,,,,
,,,,,A07POSTSH,001,2024-11-15_11h36.03.476,strooptdcs_posttest,2024.2.2,MacIntel,57.80346821,,,,,,,,,,,green,green,g,yes,,,,,,58.0828,59.5817,g,1,1.100199997,,0,22,22,22,1,,,,,
,,,,,A07POSTSH,001,2024-11-15_11h36.03.476,strooptdcs_posttest,2024.2.2,MacIntel,57.80346821,,,,,,,,,,,green,green,g,yes,,,,,,59.5822,60.5317,g,1,0.553300003,,0,23,23,23,1,,,,,
,,,,,A07POSTSH,001,2024-11-15_11h36.03.476,strooptdcs_posttest,2024.2.2,MacIntel,57.80346821,,,,,,,,,,,blue,blue,b,yes,,,,,,60.533,61.9151,b,1,0.995,,0,24,24,24,1,,,,,
,,,,,A07POSTSH,001,2024-11-15_11h36.03.476,strooptdcs_posttest,2024.2.2,MacIntel,57.80346821,,,,,,,,,,,blue,green,g,no,,,,,,61.9157,63.7818,g,1,1.479099998,,0,25,25,25,1,,,,,
,,,,,A07POSTSH,001,2024-11-15_11h36.03.476,strooptdcs_posttest,2024.2.2,MacIntel,57.80346821,,,,,,,,,,,yellow,red,r,no,,,,,,63.7829,65.2651,r,1,1.094800003,,0,26,26,26,1,,,,,
,,,,,A07POSTSH,001,2024-11-15_11h36.03.476,strooptdcs_posttest,2024.2.2,MacIntel,57.80346821,,,,,,,,,,,blue,blue,b,yes,,,,,,65.2663,66.7652,b,1,1.1095,,0,27,27,27,1,,,,,
,,,,,A07POSTSH,001,2024-11-15_11h36.03.476,strooptdcs_posttest,2024.2.2,MacIntel,57.80346821,,,,,,,,,,,yellow,yellow,y,yes,,,,,,66.766,68.2987,y,1,1.1335,,0,28,28,28,1,,,,,
,,,,,A07POSTSH,001,2024-11-15_11h36.03.476,strooptdcs_posttest,2024.2.2,MacIntel,57.80346821,,,,,,,,,,,red,yellow,y,no,,,,,,68.2998,69.9155,y,1,1.216700005,,0,29,29,29,1,,,,,
,,,,,A07POSTSH,001,2024-11-15_11h36.03.476,strooptdcs_posttest,2024.2.2,MacIntel,57.80346821,,,,,,,,,,,yellow,yellow,y,yes,,,,,,69.9168,71.0321,y,1,0.719900002,,0,30,30,30,1,,,,,
,,,,,A07POSTSH,001,2024-11-15_11h36.03.476,strooptdcs_posttest,2024.2.2,MacIntel,57.80346821,,,,,,,,,,,green,blue,b,no,,,,,,71.0334,72.6478,b,1,1.217799995,,0,31,31,31,1,,,,,
,,,,,A07POSTSH,001,2024-11-15_11h36.03.476,strooptdcs_posttest,2024.2.2,MacIntel,57.80346821,,,,,,,,,,,green,green,g,yes,,,,,,72.6483,74.449,g,1,1.401599998,,0,32,32,32,1,,,,,
,,,,,A07POSTSH,001,2024-11-15_11h36.03.476,strooptdcs_posttest,2024.2.2,MacIntel,57.80346821,,,,,,,,,,,red,green,g,no,,,,,,74.45,75.6823,g,1,0.834199997,,0,33,33,33,1,,,,,
,,,,,A07POSTSH,001,2024-11-15_11h36.03.476,strooptdcs_posttest,2024.2.2,MacIntel,57.80346821,,,,,,,,,,,blue,yellow,y,no,,,,,,75.6835,77.3656,y,1,1.295800003,,0,34,34,34,1,,,,,
,,,,,A07POSTSH,001,2024-11-15_11h36.03.476,strooptdcs_posttest,2024.2.2,MacIntel,57.80346821,,,,,,,,,,,red,blue,b,no,,,,,,77.3667,78.999,b,1,1.234800003,,0,35,35,35,1,,,,,
,,,,,A07POSTSH,001,2024-11-15_11h36.03.476,strooptdcs_posttest,2024.2.2,MacIntel,57.80346821,,,,,,,,,,,red,green,g,no,,,,,,78.9996,80.9324,g,1,1.532400002,,0,36,36,36,1,,,,,
,,,,,A07POSTSH,001,2024-11-15_11h36.03.476,strooptdcs_posttest,2024.2.2,MacIntel,57.80346821,,,,,,,,,,,green,red,r,no,,,,,,80.9336,83.9661,r,1,2.645400002,,0,37,37,37,1,,,,,
,,,,,A07POSTSH,001,2024-11-15_11h36.03.476,strooptdcs_posttest,2024.2.2,MacIntel,57.80346821,,,,,,,,,,,red,red,r,yes,,,,,,83.9676,84.8816,r,1,0.517299995,,0,38,38,38,1,,,,,
,,,,,A07POSTSH,001,2024-11-15_11h36.03.476,strooptdcs_posttest,2024.2.2,MacIntel,57.80346821,,,,,,,,,,,blue,blue,b,yes,,,,,,84.8827,86.7994,b,1,1.5175,,0,39,39,39,1,,,,,
,,,,,A07POSTSH,001,2024-11-15_11h36.03.476,strooptdcs_posttest,2024.2.2,MacIntel,57.80346821,,,,,,,,,,,green,green,g,yes,,,,,,86.8005,88.3826,g,1,1.194899994,,0,40,40,40,1,,,,,
,,,,,A07POSTSH,001,2024-11-15_11h36.03.476,strooptdcs_posttest,2024.2.2,MacIntel,57.80346821,,,,,,,,,,,green,yellow,y,no,,,,,,88.3832,89.8317,y,1,1.050099998,,0,41,41,41,1,,,,,
,,,,,A07POSTSH,001,2024-11-15_11h36.03.476,strooptdcs_posttest,2024.2.2,MacIntel,57.80346821,,,,,,,,,,,yellow,yellow,y,yes,,,,,,89.8328,90.7159,y,1,0.494899994,,0,42,42,42,1,,,,,
,,,,,A07POSTSH,001,2024-11-15_11h36.03.476,strooptdcs_posttest,2024.2.2,MacIntel,57.80346821,,,,,,,,,,,yellow,yellow,y,yes,,,,,,90.7163,91.6319,y,1,0.517900002,,0,43,43,43,1,,,,,
,,,,,A07POSTSH,001,2024-11-15_11h36.03.476,strooptdcs_posttest,2024.2.2,MacIntel,57.80346821,,,,,,,,,,,blue,blue,b,yes,,,,,,91.633,92.6994,b,1,0.6785,,0,44,44,44,1,,,,,
,,,,,A07POSTSH,001,2024-11-15_11h36.03.476,strooptdcs_posttest,2024.2.2,MacIntel,57.80346821,,,,,,,,,,,yellow,red,r,no,,,,,,92.7008,94.6662,r,1,1.577899994,,0,45,45,45,1,,,,,
,,,,,A07POSTSH,001,2024-11-15_11h36.03.476,strooptdcs_posttest,2024.2.2,MacIntel,57.80346821,,,,,,,,,,,green,yellow,y,no,,,,,,94.6674,96.1496,y,1,1.082900002,,0,46,46,46,1,,,,,
,,,,,A07POSTSH,001,2024-11-15_11h36.03.476,strooptdcs_posttest,2024.2.2,MacIntel,57.80346821,,,,,,,,,,,red,red,r,yes,,,,,,96.1509,97.4823,r,1,0.944399994,,0,47,47,47,1,,,,,
,,,,,A07POSTSH,001,2024-11-15_11h36.03.476,strooptdcs_posttest,2024.2.2,MacIntel,57.80346821,,,,,,,,,,,yellow,yellow,y,yes,,,,,,97.4834,98.5498,y,1,0.6785,,0,48,48,48,1,,,,,
,,,,,A07POSTSH,001,2024-11-15_11h36.03.476,strooptdcs_posttest,2024.2.2,MacIntel,57.80346821,,,,,,,,,,,blue,red,r,no,,,,,,98.5508,100.2833,r,1,1.3455,,0,49,49,49,1,,,,,
,,,,,A07POSTSH,001,2024-11-15_11h36.03.476,strooptdcs_posttest,2024.2.2,MacIntel,57.80346821,,,,,,,,,,,blue,blue,b,yes,,,,,,100.2839,101.8166,b,1,1.145799995,,0,50,50,50,1,,,,,
,,,,,A07POSTSH,001,2024-11-15_11h36.03.476,strooptdcs_posttest,2024.2.2,MacIntel,57.80346821,,,,,,,,,,,red,blue,b,no,,,,,,101.8179,103.3499,b,1,1.132400002,,0,51,51,51,1,,,,,
,,,,,A07POSTSH,001,2024-11-15_11h36.03.476,strooptdcs_posttest,2024.2.2,MacIntel,57.80346821,,,,,,,,,,,yellow,red,r,no,,,,,,103.351,104.8999,r,1,1.150599998,,0,52,52,52,1,,,,,
,,,,,A07POSTSH,001,2024-11-15_11h36.03.476,strooptdcs_posttest,2024.2.2,MacIntel,57.80346821,,,,,,,,,,,green,blue,b,no,,,,,,104.9012,106.9666,b,1,1.666699997,,0,53,53,53,1,,,,,
,,,,,A07POSTSH,001,2024-11-15_11h36.03.476,strooptdcs_posttest,2024.2.2,MacIntel,57.80346821,,,,,,,,,,,yellow,blue,b,no,,,,,,106.9679,108.3324,b,1,0.969099998,,0,54,54,54,1,,,,,
,,,,,A07POSTSH,001,2024-11-15_11h36.03.476,strooptdcs_posttest,2024.2.2,MacIntel,57.80346821,,,,,,,,,,,blue,blue,b,yes,,,,,,108.3336,109.3667,b,1,0.637,,0,55,55,55,1,,,,,
,,,,,A07POSTSH,001,2024-11-15_11h36.03.476,strooptdcs_posttest,2024.2.2,MacIntel,57.80346821,,,,,,,,,,,red,red,r,yes,,,,,,109.3679,111.2834,r,1,1.528400002,,0,56,56,56,1,,,,,
,,,,,A07POSTSH,001,2024-11-15_11h36.03.476,strooptdcs_posttest,2024.2.2,MacIntel,57.80346821,,,,,,,,,,,red,green,g,no,,,,,,111.2841,113.2497,g,1,1.568400002,,0,57,57,57,1,,,,,
,,,,,A07POSTSH,001,2024-11-15_11h36.03.476,strooptdcs_posttest,2024.2.2,MacIntel,57.80346821,,,,,,,,,,,blue,red,r,no,,,,,,113.2511,114.4997,r,1,0.851299995,,0,58,58,58,1,,,,,
,,,,,A07POSTSH,001,2024-11-15_11h36.03.476,strooptdcs_posttest,2024.2.2,MacIntel,57.80346821,,,,,,,,,,,red,blue,b,no,,,,,,114.501,116.2338,b,1,1.345400002,,0,59,59,59,1,,,,,
,,,,,A07POSTSH,001,2024-11-15_11h36.03.476,strooptdcs_posttest,2024.2.2,MacIntel,57.80346821,,,,,,,,,,,red,red,r,yes,,,,,,116.2344,117.1005,b,0,0.471900002,,0,60,60,60,1,,,,,
,,,,,A07POSTSH,001,2024-11-15_11h36.03.476,strooptdcs_posttest,2024.2.2,MacIntel,57.80346821,,,,,,,,,,,red,red,r,yes,,,,,,117.1011,119.5338,r,1,2.0365,,0,61,61,61,1,,,,,
,,,,,A07POSTSH,001,2024-11-15_11h36.03.476,strooptdcs_posttest,2024.2.2,MacIntel,57.80346821,,,,,,,,,,,yellow,blue,b,no,,,,,,119.535,121.7504,b,1,1.826700005,,0,62,62,62,1,,,,,
,,,,,A07POSTSH,001,2024-11-15_11h36.03.476,strooptdcs_posttest,2024.2.2,MacIntel,57.80346821,,,,,,,,,,,blue,blue,b,yes,,,,,,121.7514,122.8672,b,1,0.730099998,,0,63,63,63,1,,,,,
,,,,,A07POSTSH,001,2024-11-15_11h36.03.476,strooptdcs_posttest,2024.2.2,MacIntel,57.80346821,,,,,,,,,,,blue,yellow,y,no,,,,,,122.8678,124.4507,y,1,1.183299995,,0,64,64,64,1,,,,,
,,,,,A07POSTSH,001,2024-11-15_11h36.03.476,strooptdcs_posttest,2024.2.2,MacIntel,57.80346821,,,,,,,,,,,green,green,g,yes,,,,,,124.4518,126.484,g,1,1.631699997,,0,65,65,65,1,,,,,
,,,,,A07POSTSH,001,2024-11-15_11h36.03.476,strooptdcs_posttest,2024.2.2,MacIntel,57.80346821,,,,,,,,,,,green,blue,b,no,,,,,,126.4845,127.7174,b,1,0.838199997,,0,66,66,66,1,,,,,
,,,,,A07POSTSH,001,2024-11-15_11h36.03.476,strooptdcs_posttest,2024.2.2,MacIntel,57.80346821,,,,,,,,,,,green,green,g,yes,,,,,,127.7182,129.2676,g,1,1.151,,0,67,67,67,1,,,,,
,,,,,A07POSTSH,001,2024-11-15_11h36.03.476,strooptdcs_posttest,2024.2.2,MacIntel,57.80346821,,,,,,,,,,,red,red,r,yes,,,,,,129.2689,130.8678,r,1,1.202199997,,0,68,68,68,1,,,,,
,,,,,A07POSTSH,001,2024-11-15_11h36.03.476,strooptdcs_posttest,2024.2.2,MacIntel,57.80346821,,,,,,,,,,,yellow,yellow,y,yes,,,,,,130.8693,132.8179,y,1,1.562400002,,0,69,69,69,1,,,,,
,,,,,A07POSTSH,001,2024-11-15_11h36.03.476,strooptdcs_posttest,2024.2.2,MacIntel,57.80346821,,,,,,,,,,,yellow,green,g,no,,,,,,132.8187,134.1344,b,0,0.918599998,,0,70,70,70,1,,,,,
,,,,,A07POSTSH,001,2024-11-15_11h36.03.476,strooptdcs_posttest,2024.2.2,MacIntel,57.80346821,,,,,,,,,,,green,red,r,no,,,,,,134.1356,135.9511,r,1,1.416599998,,0,71,71,71,1,,,,,
,,,,,A07POSTSH,001,2024-11-15_11h36.03.476,strooptdcs_posttest,2024.2.2,MacIntel,57.80346821,,,,,,,,,,,,,,,,,,,,,,,,,,,,,,,135.9515,138.0848,y,1.200699997,
