instruct.started,instruct.stopped,key_resp_instr.keys,key_resp_instr.rt,key_resp_instr.duration,participant,session,date,expName,psychopyVersion,OS,frameRate,practice.started,practice.stopped,practicetrialskeys.keys,practicetrialskeys.rt,practicetrialskeys.duration,practicetrialss.thisRepN,practicetrialss.thisTrialN,practicetrialss.thisN,practicetrialss.thisIndex,practicetrialss.ran,text,letterColor,corrAns,congruent,RUready.started,RUready.stopped,key_resp_2.keys,key_resp_2.rt,key_resp_2.duration,trials.started,trials.stopped,key_resp_trials.keys,key_resp_trials.corr,key_resp_trials.rt,key_resp_trials.duration,trials_2.thisRepN,trials_2.thisTrialN,trials_2.thisN,trials_2.thisIndex,trials_2.ran,thanks.started,thanks.stopped,key_resp.keys,key_resp.rt,key_resp.duration
0.000199997,14.478,y,13.46189999,,B06Postsh,001,2024-11-13_18h57.12.042,strooptdcs_posttest,2024.2.2,MacIntel,63.29113924,,,,,,,,,,,,,,,,,,,,,,,,,,,,,,,,,,,
,,,,,B06Postsh,001,2024-11-13_18h57.12.042,strooptdcs_posttest,2024.2.2,MacIntel,63.29113924,14.5011,16.1941,y,1.262099998,,0,0,0,0,1,yellow,yellow,y,yes,,,,,,,,,,,,,,,,,,,,,
,,,,,B06Postsh,001,2024-11-13_18h57.12.042,strooptdcs_posttest,2024.2.2,MacIntel,63.29113924,16.1958,17.7441,b,1.123299995,,0,1,1,1,1,green,blue,b,no,,,,,,,,,,,,,,,,,,,,,
,,,,,B06Postsh,001,2024-11-13_18h57.12.042,strooptdcs_posttest,2024.2.2,MacIntel,63.29113924,17.7448,19.3104,g,1.1435,,0,2,2,2,1,green,green,g,yes,,,,,,,,,,,,,,,,,,,,,
,,,,,B06Postsh,001,2024-11-13_18h57.12.042,strooptdcs_posttest,2024.2.2,MacIntel,63.29113924,19.3117,21.0107,g,1.255599998,,0,3,3,3,1,red,green,g,no,,,,,,,,,,,,,,,,,,,,,
,,,,,B06Postsh,001,2024-11-13_18h57.12.042,strooptdcs_posttest,2024.2.2,MacIntel,63.29113924,21.0123,22.594,y,1.151199997,,0,4,4,4,1,blue,yellow,y,no,,,,,,,,,,,,,,,,,,,,,
,,,,,B06Postsh,001,2024-11-13_18h57.12.042,strooptdcs_posttest,2024.2.2,MacIntel,63.29113924,,,,,,,,,,,,,,,22.5945,25.8277,y,2.110599998,,,,,,,,,,,,,,,,,
,,,,,B06Postsh,001,2024-11-13_18h57.12.042,strooptdcs_posttest,2024.2.2,MacIntel,63.29113924,,,,,,,,,,,red,red,r,yes,,,,,,25.8461,27.3611,r,1,1.1185,,0,0,0,0,1,,,,,
,,,,,B06Postsh,001,2024-11-13_18h57.12.042,strooptdcs_posttest,2024.2.2,MacIntel,63.29113924,,,,,,,,,,,blue,blue,b,yes,,,,,,27.3626,28.6442,b,1,0.883099998,,0,1,1,1,1,,,,,
,,,,,B06Postsh,001,2024-11-13_18h57.12.042,strooptdcs_posttest,2024.2.2,MacIntel,63.29113924,,,,,,,,,,,yellow,green,g,no,,,,,,28.6454,30.7276,g,1,1.686300003,,0,2,2,2,1,,,,,
,,,,,B06Postsh,001,2024-11-13_18h57.12.042,strooptdcs_posttest,2024.2.2,MacIntel,63.29113924,,,,,,,,,,,blue,green,g,no,,,,,,30.7289,31.8609,g,1,0.744599998,,0,3,3,3,1,,,,,
,,,,,B06Postsh,001,2024-11-13_18h57.12.042,strooptdcs_posttest,2024.2.2,MacIntel,63.29113924,,,,,,,,,,,green,green,g,yes,,,,,,31.8621,32.7611,g,1,0.504100006,,0,4,4,4,1,,,,,
,,,,,B06Postsh,001,2024-11-13_18h57.12.042,strooptdcs_posttest,2024.2.2,MacIntel,63.29113924,,,,,,,,,,,blue,red,r,no,,,,,,32.7628,34.2944,r,1,1.133599998,,0,5,5,5,1,,,,,
,,,,,B06Postsh,001,2024-11-13_18h57.12.042,strooptdcs_posttest,2024.2.2,MacIntel,63.29113924,,,,,,,,,,,yellow,green,g,no,,,,,,34.2957,36.3943,g,1,1.712,,0,6,6,6,1,,,,,
,,,,,B06Postsh,001,2024-11-13_18h57.12.042,strooptdcs_posttest,2024.2.2,MacIntel,63.29113924,,,,,,,,,,,blue,green,g,no,,,,,,36.3952,37.6768,g,1,0.883699997,,0,7,7,7,1,,,,,
,,,,,B06Postsh,001,2024-11-13_18h57.12.042,strooptdcs_posttest,2024.2.2,MacIntel,63.29113924,,,,,,,,,,,green,green,g,yes,,,,,,37.6782,38.5111,g,1,0.433799995,,0,8,8,8,1,,,,,
,,,,,B06Postsh,001,2024-11-13_18h57.12.042,strooptdcs_posttest,2024.2.2,MacIntel,63.29113924,,,,,,,,,,,yellow,yellow,y,yes,,,,,,38.5126,40.1769,y,1,1.266399994,,0,9,9,9,1,,,,,
,,,,,B06Postsh,001,2024-11-13_18h57.12.042,strooptdcs_posttest,2024.2.2,MacIntel,63.29113924,,,,,,,,,,,yellow,yellow,y,yes,,,,,,40.1774,41.1279,y,1,0.562199997,,0,10,10,10,1,,,,,
,,,,,B06Postsh,001,2024-11-13_18h57.12.042,strooptdcs_posttest,2024.2.2,MacIntel,63.29113924,,,,,,,,,,,green,green,g,yes,,,,,,41.129,42.6278,g,1,1.1005,,0,11,11,11,1,,,,,
,,,,,B06Postsh,001,2024-11-13_18h57.12.042,strooptdcs_posttest,2024.2.2,MacIntel,63.29113924,,,,,,,,,,,yellow,blue,b,no,,,,,,42.6288,44.4614,b,1,1.4385,,0,12,12,12,1,,,,,
,,,,,B06Postsh,001,2024-11-13_18h57.12.042,strooptdcs_posttest,2024.2.2,MacIntel,63.29113924,,,,,,,,,,,green,red,r,no,,,,,,44.4628,46.1447,r,1,1.296099998,,0,13,13,13,1,,,,,
,,,,,B06Postsh,001,2024-11-13_18h57.12.042,strooptdcs_posttest,2024.2.2,MacIntel,63.29113924,,,,,,,,,,,red,red,r,yes,,,,,,46.146,47.2438,r,1,0.6995,,0,14,14,14,1,,,,,
,,,,,B06Postsh,001,2024-11-13_18h57.12.042,strooptdcs_posttest,2024.2.2,MacIntel,63.29113924,,,,,,,,,,,blue,blue,b,yes,,,,,,47.2451,48.6449,b,1,1.000600006,,0,15,15,15,1,,,,,
,,,,,B06Postsh,001,2024-11-13_18h57.12.042,strooptdcs_posttest,2024.2.2,MacIntel,63.29113924,,,,,,,,,,,red,yellow,y,no,,,,,,48.6461,50.1115,y,1,1.078800003,,0,16,16,16,1,,,,,
,,,,,B06Postsh,001,2024-11-13_18h57.12.042,strooptdcs_posttest,2024.2.2,MacIntel,63.29113924,,,,,,,,,,,red,yellow,y,no,,,,,,50.1119,50.9783,y,1,0.467599998,,0,17,17,17,1,,,,,
,,,,,B06Postsh,001,2024-11-13_18h57.12.042,strooptdcs_posttest,2024.2.2,MacIntel,63.29113924,,,,,,,,,,,green,yellow,y,no,,,,,,50.9796,51.9783,y,1,0.602600006,,0,18,18,18,1,,,,,
,,,,,B06Postsh,001,2024-11-13_18h57.12.042,strooptdcs_posttest,2024.2.2,MacIntel,63.29113924,,,,,,,,,,,blue,yellow,y,no,,,,,,51.9797,53.1619,y,1,0.796800003,,0,19,19,19,1,,,,,
,,,,,B06Postsh,001,2024-11-13_18h57.12.042,strooptdcs_posttest,2024.2.2,MacIntel,63.29113924,,,,,,,,,,,yellow,yellow,y,yes,,,,,,53.163,53.9284,y,1,0.3785,,0,20,20,20,1,,,,,
,,,,,B06Postsh,001,2024-11-13_18h57.12.042,strooptdcs_posttest,2024.2.2,MacIntel,63.29113924,,,,,,,,,,,red,red,r,yes,,,,,,53.9294,55.4117,r,1,1.096100006,,0,21,21,21,1,,,,,
,,,,,B06Postsh,001,2024-11-13_18h57.12.042,strooptdcs_posttest,2024.2.2,MacIntel,63.29113924,,,,,,,,,,,green,green,g,yes,,,,,,55.4128,56.8617,g,1,1.061900002,,0,22,22,22,1,,,,,
,,,,,B06Postsh,001,2024-11-13_18h57.12.042,strooptdcs_posttest,2024.2.2,MacIntel,63.29113924,,,,,,,,,,,green,green,g,yes,,,,,,56.8624,57.7453,g,1,0.4875,,0,23,23,23,1,,,,,
,,,,,B06Postsh,001,2024-11-13_18h57.12.042,strooptdcs_posttest,2024.2.2,MacIntel,63.29113924,,,,,,,,,,,blue,blue,b,yes,,,,,,57.7465,59.3118,b,1,1.177900002,,0,24,24,24,1,,,,,
,,,,,B06Postsh,001,2024-11-13_18h57.12.042,strooptdcs_posttest,2024.2.2,MacIntel,63.29113924,,,,,,,,,,,blue,green,g,no,,,,,,59.3124,60.5786,b,0,0.878399994,,0,25,25,25,1,,,,,
,,,,,B06Postsh,001,2024-11-13_18h57.12.042,strooptdcs_posttest,2024.2.2,MacIntel,63.29113924,,,,,,,,,,,yellow,red,r,no,,,,,,60.5799,63.6114,r,1,2.645300003,,0,26,26,26,1,,,,,
,,,,,B06Postsh,001,2024-11-13_18h57.12.042,strooptdcs_posttest,2024.2.2,MacIntel,63.29113924,,,,,,,,,,,blue,blue,b,yes,,,,,,63.6126,65.1955,b,1,1.188199997,,0,27,27,27,1,,,,,
,,,,,B06Postsh,001,2024-11-13_18h57.12.042,strooptdcs_posttest,2024.2.2,MacIntel,63.29113924,,,,,,,,,,,yellow,yellow,y,yes,,,,,,65.1968,66.8454,y,1,1.261200005,,0,28,28,28,1,,,,,
,,,,,B06Postsh,001,2024-11-13_18h57.12.042,strooptdcs_posttest,2024.2.2,MacIntel,63.29113924,,,,,,,,,,,red,yellow,y,no,,,,,,66.8465,68.2288,y,1,0.9955,,0,29,29,29,1,,,,,
,,,,,B06Postsh,001,2024-11-13_18h57.12.042,strooptdcs_posttest,2024.2.2,MacIntel,63.29113924,,,,,,,,,,,yellow,yellow,y,yes,,,,,,68.2299,69.0622,y,1,0.435099998,,0,30,30,30,1,,,,,
,,,,,B06Postsh,001,2024-11-13_18h57.12.042,strooptdcs_posttest,2024.2.2,MacIntel,63.29113924,,,,,,,,,,,green,blue,b,no,,,,,,69.0633,70.8455,b,1,1.3825,,0,31,31,31,1,,,,,
,,,,,B06Postsh,001,2024-11-13_18h57.12.042,strooptdcs_posttest,2024.2.2,MacIntel,63.29113924,,,,,,,,,,,green,green,g,yes,,,,,,70.8461,72.078,g,1,0.835300003,,0,32,32,32,1,,,,,
,,,,,B06Postsh,001,2024-11-13_18h57.12.042,strooptdcs_posttest,2024.2.2,MacIntel,63.29113924,,,,,,,,,,,red,green,g,no,,,,,,72.0795,73.2124,g,1,0.733900002,,0,33,33,33,1,,,,,
,,,,,B06Postsh,001,2024-11-13_18h57.12.042,strooptdcs_posttest,2024.2.2,MacIntel,63.29113924,,,,,,,,,,,blue,yellow,y,no,,,,,,73.2137,74.8624,y,1,1.252599998,,0,34,34,34,1,,,,,
,,,,,B06Postsh,001,2024-11-13_18h57.12.042,strooptdcs_posttest,2024.2.2,MacIntel,63.29113924,,,,,,,,,,,red,blue,b,no,,,,,,74.8637,76.7958,b,1,1.545099998,,0,35,35,35,1,,,,,
,,,,,B06Postsh,001,2024-11-13_18h57.12.042,strooptdcs_posttest,2024.2.2,MacIntel,63.29113924,,,,,,,,,,,red,green,g,no,,,,,,76.7963,78.5956,g,1,1.410700005,,0,36,36,36,1,,,,,
,,,,,B06Postsh,001,2024-11-13_18h57.12.042,strooptdcs_posttest,2024.2.2,MacIntel,63.29113924,,,,,,,,,,,green,red,r,no,,,,,,78.5966,80.945,r,1,1.950599998,,0,37,37,37,1,,,,,
,,,,,B06Postsh,001,2024-11-13_18h57.12.042,strooptdcs_posttest,2024.2.2,MacIntel,63.29113924,,,,,,,,,,,red,red,r,yes,,,,,,80.9462,81.9961,r,1,0.652799995,,0,38,38,38,1,,,,,
,,,,,B06Postsh,001,2024-11-13_18h57.12.042,strooptdcs_posttest,2024.2.2,MacIntel,63.29113924,,,,,,,,,,,blue,blue,b,yes,,,,,,81.9975,83.4293,b,1,1.035099998,,0,39,39,39,1,,,,,
,,,,,B06Postsh,001,2024-11-13_18h57.12.042,strooptdcs_posttest,2024.2.2,MacIntel,63.29113924,,,,,,,,,,,green,green,g,yes,,,,,,83.4304,84.6794,g,1,0.861900002,,0,40,40,40,1,,,,,
,,,,,B06Postsh,001,2024-11-13_18h57.12.042,strooptdcs_posttest,2024.2.2,MacIntel,63.29113924,,,,,,,,,,,green,yellow,y,no,,,,,,84.6802,86.4796,y,1,1.401299995,,0,41,41,41,1,,,,,
,,,,,B06Postsh,001,2024-11-13_18h57.12.042,strooptdcs_posttest,2024.2.2,MacIntel,63.29113924,,,,,,,,,,,yellow,yellow,y,yes,,,,,,86.481,87.5963,y,1,0.717699997,,0,42,42,42,1,,,,,
,,,,,B06Postsh,001,2024-11-13_18h57.12.042,strooptdcs_posttest,2024.2.2,MacIntel,63.29113924,,,,,,,,,,,yellow,yellow,y,yes,,,,,,87.5968,88.4294,y,1,0.432900002,,0,43,43,43,1,,,,,
,,,,,B06Postsh,001,2024-11-13_18h57.12.042,strooptdcs_posttest,2024.2.2,MacIntel,63.29113924,,,,,,,,,,,blue,blue,b,yes,,,,,,88.4309,89.713,b,1,0.885699997,,0,44,44,44,1,,,,,
,,,,,B06Postsh,001,2024-11-13_18h57.12.042,strooptdcs_posttest,2024.2.2,MacIntel,63.29113924,,,,,,,,,,,yellow,red,r,no,,,,,,89.714,91.4954,r,1,1.387099998,,0,45,45,45,1,,,,,
,,,,,B06Postsh,001,2024-11-13_18h57.12.042,strooptdcs_posttest,2024.2.2,MacIntel,63.29113924,,,,,,,,,,,green,yellow,y,no,,,,,,91.4967,93.6296,y,1,1.745800003,,0,46,46,46,1,,,,,
,,,,,B06Postsh,001,2024-11-13_18h57.12.042,strooptdcs_posttest,2024.2.2,MacIntel,63.29113924,,,,,,,,,,,red,red,r,yes,,,,,,93.6309,95.3627,r,1,1.3325,,0,47,47,47,1,,,,,
,,,,,B06Postsh,001,2024-11-13_18h57.12.042,strooptdcs_posttest,2024.2.2,MacIntel,63.29113924,,,,,,,,,,,yellow,yellow,y,yes,,,,,,95.3637,96.7632,y,1,1.012300003,,0,48,48,48,1,,,,,
,,,,,B06Postsh,001,2024-11-13_18h57.12.042,strooptdcs_posttest,2024.2.2,MacIntel,63.29113924,,,,,,,,,,,blue,red,r,no,,,,,,96.7644,98.5964,r,1,1.4455,,0,49,49,49,1,,,,,
,,,,,B06Postsh,001,2024-11-13_18h57.12.042,strooptdcs_posttest,2024.2.2,MacIntel,63.29113924,,,,,,,,,,,blue,blue,b,yes,,,,,,98.5971,100.0466,b,1,1.049900002,,0,50,50,50,1,,,,,
,,,,,B06Postsh,001,2024-11-13_18h57.12.042,strooptdcs_posttest,2024.2.2,MacIntel,63.29113924,,,,,,,,,,,red,blue,b,no,,,,,,100.0475,101.28,b,1,0.845400002,,0,51,51,51,1,,,,,
,,,,,B06Postsh,001,2024-11-13_18h57.12.042,strooptdcs_posttest,2024.2.2,MacIntel,63.29113924,,,,,,,,,,,yellow,red,r,no,,,,,,101.281,102.9635,r,1,1.287400002,,0,52,52,52,1,,,,,
,,,,,B06Postsh,001,2024-11-13_18h57.12.042,strooptdcs_posttest,2024.2.2,MacIntel,63.29113924,,,,,,,,,,,green,blue,b,no,,,,,,102.9649,104.7801,b,1,1.428600006,,0,53,53,53,1,,,,,
,,,,,B06Postsh,001,2024-11-13_18h57.12.042,strooptdcs_posttest,2024.2.2,MacIntel,63.29113924,,,,,,,,,,,yellow,blue,b,no,,,,,,104.7811,105.8802,b,1,0.701,,0,54,54,54,1,,,,,
,,,,,B06Postsh,001,2024-11-13_18h57.12.042,strooptdcs_posttest,2024.2.2,MacIntel,63.29113924,,,,,,,,,,,blue,blue,b,yes,,,,,,105.8815,106.6303,b,1,0.351,,0,55,55,55,1,,,,,
,,,,,B06Postsh,001,2024-11-13_18h57.12.042,strooptdcs_posttest,2024.2.2,MacIntel,63.29113924,,,,,,,,,,,red,red,r,yes,,,,,,106.6316,107.9968,r,1,0.977400002,,0,56,56,56,1,,,,,
,,,,,B06Postsh,001,2024-11-13_18h57.12.042,strooptdcs_posttest,2024.2.2,MacIntel,63.29113924,,,,,,,,,,,red,green,g,no,,,,,,107.9972,109.847,g,1,1.452700005,,0,57,57,57,1,,,,,
,,,,,B06Postsh,001,2024-11-13_18h57.12.042,strooptdcs_posttest,2024.2.2,MacIntel,63.29113924,,,,,,,,,,,blue,red,r,no,,,,,,109.8484,112.5303,r,1,2.283899994,,0,58,58,58,1,,,,,
,,,,,B06Postsh,001,2024-11-13_18h57.12.042,strooptdcs_posttest,2024.2.2,MacIntel,63.29113924,,,,,,,,,,,red,blue,b,no,,,,,,112.5315,115.1804,b,1,2.249599998,,0,59,59,59,1,,,,,
,,,,,B06Postsh,001,2024-11-13_18h57.12.042,strooptdcs_posttest,2024.2.2,MacIntel,63.29113924,,,,,,,,,,,red,red,r,yes,,,,,,115.181,118.0305,r,1,2.461899994,,0,60,60,60,1,,,,,
,,,,,B06Postsh,001,2024-11-13_18h57.12.042,strooptdcs_posttest,2024.2.2,MacIntel,63.29113924,,,,,,,,,,,red,red,r,yes,,,,,,118.031,118.9808,r,1,0.562800003,,0,61,61,61,1,,,,,
,,,,,B06Postsh,001,2024-11-13_18h57.12.042,strooptdcs_posttest,2024.2.2,MacIntel,63.29113924,,,,,,,,,,,yellow,blue,b,no,,,,,,118.982,120.6641,b,1,1.284699997,,0,62,62,62,1,,,,,
,,,,,B06Postsh,001,2024-11-13_18h57.12.042,strooptdcs_posttest,2024.2.2,MacIntel,63.29113924,,,,,,,,,,,blue,blue,b,yes,,,,,,120.6651,121.8464,b,1,0.783900002,,0,63,63,63,1,,,,,
,,,,,B06Postsh,001,2024-11-13_18h57.12.042,strooptdcs_posttest,2024.2.2,MacIntel,63.29113924,,,,,,,,,,,blue,yellow,y,no,,,,,,121.8472,123.3309,y,1,1.087299995,,0,64,64,64,1,,,,,
,,,,,B06Postsh,001,2024-11-13_18h57.12.042,strooptdcs_posttest,2024.2.2,MacIntel,63.29113924,,,,,,,,,,,green,green,g,yes,,,,,,123.3321,124.764,g,1,1.044099998,,0,65,65,65,1,,,,,
,,,,,B06Postsh,001,2024-11-13_18h57.12.042,strooptdcs_posttest,2024.2.2,MacIntel,63.29113924,,,,,,,,,,,green,blue,b,no,,,,,,124.7645,126.2971,b,1,1.146299995,,0,66,66,66,1,,,,,
,,,,,B06Postsh,001,2024-11-13_18h57.12.042,strooptdcs_posttest,2024.2.2,MacIntel,63.29113924,,,,,,,,,,,green,green,g,yes,,,,,,126.2978,128.1978,g,1,1.511900002,,0,67,67,67,1,,,,,
,,,,,B06Postsh,001,2024-11-13_18h57.12.042,strooptdcs_posttest,2024.2.2,MacIntel,63.29113924,,,,,,,,,,,red,red,r,yes,,,,,,128.1988,129.6978,r,1,1.112199997,,0,68,68,68,1,,,,,
,,,,,B06Postsh,001,2024-11-13_18h57.12.042,strooptdcs_posttest,2024.2.2,MacIntel,63.29113924,,,,,,,,,,,yellow,yellow,y,yes,,,,,,129.6987,131.4477,y,1,1.362099998,,0,69,69,69,1,,,,,
,,,,,B06Postsh,001,2024-11-13_18h57.12.042,strooptdcs_posttest,2024.2.2,MacIntel,63.29113924,,,,,,,,,,,yellow,green,g,no,,,,,,131.4483,134.0146,g,1,2.167800003,,0,70,70,70,1,,,,,
,,,,,B06Postsh,001,2024-11-13_18h57.12.042,strooptdcs_posttest,2024.2.2,MacIntel,63.29113924,,,,,,,,,,,green,red,r,no,,,,,,134.0158,136.648,r,1,2.234400002,,0,71,71,71,1,,,,,
,,,,,B06Postsh,001,2024-11-13_18h57.12.042,strooptdcs_posttest,2024.2.2,MacIntel,63.29113924,,,,,,,,,,,,,,,,,,,,,,,,,,,,,,,136.6484,139.1818,y,1.600400002,
